"","trace","tr1","r1","d1","tr2","r2","d2","choice","fixedOnLeft","rt","fixed_ll1","ll1_ss0","trial_no","ll.amt","ss.amt","ll.del","ss.del","subid"
"1","1",200,210,6,254.88,267,11,"1","false",4.33,0,0,1,267,210,11,6,23
"2","2",400,408,6,280.25,286,1,"1","false",3.98,1,1,2,408,286,6,1,23
"3","4",-200,-207,6,-148.15,-153,1,"2","false",6.999,1,0,3,-207,-153,6,1,23
"4","1",200,200,6,294.88,295,11,"2","true",5.656,0,1,4,295,200,11,6,23
"5","5",-200,-204,6,-224.52,-229,11,"1","false",5.758,0,0,5,-229,-204,11,6,23
"6","0",200,196,6,171.66,168,1,"1","false",4.76,1,1,6,196,168,6,1,23
"7","4",-200,-207,6,-188.15,-195,1,"1","true",8.694,1,1,7,-207,-195,6,1,23
"8","1",200,198,6,254.88,252,11,"2","true",7.54,0,1,8,252,198,11,6,23
"9","5",-200,-200,6,-212.26,-212,11,"1","true",7.552,0,0,9,-212,-200,11,6,23
"10","5",-200,-197,6,-206.13,-203,11,"2","true",8.05,0,1,10,-203,-197,11,6,23
"11","2",400,415,6,320.25,332,1,"1","true",4.515,1,1,11,415,332,6,1,23
"12","0",200,203,6,185.83,188,1,"2","true",10.031,1,0,12,203,188,6,1,23
"13","2",400,388,6,360.25,350,1,"1","true",5.273,1,1,13,388,350,6,1,23
"14","5",-200,-200,6,-234.13,-234,11,"1","false",3.928,0,0,14,-234,-200,11,6,23
"15","2",400,389,6,380.13,369,1,"2","true",3.813,1,0,15,389,369,6,1,23
"16","6",-100,-103,6,-84.01,-86,1,"2","true",4.796,1,0,16,-103,-86,6,1,23
"17","4",-200,-208,6,-148.15,-154,1,"2","false",7.235,1,0,17,-208,-154,6,1,23
"18","4",-200,-206,6,-176.15,-181,1,"1","false",4.331,1,1,18,-206,-181,6,1,23
"19","6",-100,-104,6,-92.01,-95,1,"1","false",3.256,1,1,19,-104,-95,6,1,23
"20","6",-100,-95,6,-52.01,-50,1,"2","false",3.33,1,0,20,-95,-50,6,1,23
"21","6",-100,-105,6,-80.01,-84,1,"2","true",5.209,1,0,21,-105,-84,6,1,23
"22","5",-200,-192,6,-214.53,-206,11,"1","true",3.026,0,0,22,-206,-192,11,6,23
"23","5",-200,-198,6,-207.26,-205,11,"1","true",3.248,0,0,23,-205,-198,11,6,23
"24","5",-200,-191,6,-203.63,-195,11,"1","false",3.511,0,0,24,-195,-191,11,6,23
"25","6",-100,-98,6,-90,-88,1,"2","true",4.441,1,0,25,-98,-88,6,1,23
"26","0",200,205,6,145.83,150,1,"1","false",5.726,1,1,26,205,150,6,1,23
"27","0",200,197,6,173.83,171,1,"1","false",3.86,1,1,27,197,171,6,1,23
"28","0",200,200,6,186.92,187,1,"1","true",4.122,1,1,28,200,187,6,1,23
"29","4",-200,-201,6,-156.55,-158,1,"2","false",8.043,1,0,29,-201,-158,6,1,23
"30","1",200,203,6,214.88,218,11,"1","true",2.914,0,0,30,218,203,11,6,23
"31","1",200,199,6,242.88,242,11,"2","true",5.7,0,1,31,242,199,11,6,23
"32","0",200,207,6,193.46,200,1,"2","true",5.988,1,0,32,207,200,6,1,23
"33","3",400,389,6,442.6,431,11,"2","false",5.776,0,1,33,431,389,11,6,23
"34","4",-200,-197,6,-170.27,-168,1,"2","false",5.432,1,0,34,-197,-168,6,1,23
"35","3",400,420,6,402.6,423,11,"1","false",7.604,0,0,35,423,420,11,6,23
"36","0",200,200,6,183.85,184,1,"1","false",3.943,1,1,36,200,184,6,1,23
"37","1",200,210,6,223.28,234,11,"1","true",6.485,0,0,37,234,210,11,6,23
"38","3",400,402,6,442.6,445,11,"2","false",3.469,0,1,38,445,402,11,6,23
"39","7",-100,-103,6,-129,-133,11,"1","false",2.736,0,0,39,-133,-103,11,6,23
"40","1",200,195,6,237,231,11,"2","true",11.726,0,1,40,231,195,11,6,23
"41","5",-200,-208,6,-201.82,-210,11,"1","false",2.403,0,0,41,-210,-208,11,6,23
"42","1",200,206,6,227.4,234,11,"1","true",5.568,0,0,42,234,206,11,6,23
"43","3",400,413,6,414.6,428,11,"1","false",3.062,0,0,43,428,413,11,6,23
"44","6",-100,-96,6,-95,-91,1,"2","true",3.71,1,0,44,-96,-91,6,1,23
"45","5",-200,-198,6,-200.91,-198,11,"1","false",4.065,0,0,45,-198,-198,11,6,23
"46","6",-100,-98,6,-97.5,-95,1,"1","true",4.658,1,1,46,-98,-95,6,1,23
"47","5",-200,-195,6,-200.45,-195,11,"1","false",3.057,0,0,47,-195,-195,11,6,23
"48","1",200,198,6,234.12,232,11,"2","true",9.035,0,1,48,232,198,11,6,23
"49","7",-100,-102,6,-114.5,-117,11,"1","false",5.337,0,0,49,-117,-102,11,6,23
"50","3",400,389,6,434.2,422,11,"2","true",7.91,0,1,50,422,389,11,6,23
"51","7",-100,-99,6,-107.25,-107,11,"1","true",2.503,0,0,51,-107,-99,11,6,23
"52","2",400,396,6,360.53,357,1,"1","true",7.715,1,1,52,396,357,6,1,23
"53","4",-200,-209,6,-183.99,-192,1,"2","false",7.838,1,0,53,-209,-192,6,1,23
"54","3",400,391,6,420.48,411,11,"1","true",7.584,0,0,54,411,391,11,6,23
"55","5",-200,-192,6,-200.23,-193,11,"1","true",4.584,0,0,55,-193,-192,11,6,23
"56","0",200,198,6,190.58,188,1,"1","false",4.093,1,1,56,198,188,6,1,23
"57","6",-100,-102,6,-90.78,-93,1,"2","true",11.06,1,0,57,-102,-93,6,1,23
"58","1",200,207,6,229.42,238,11,"1","true",3.467,0,0,58,238,207,11,6,23
"59","3",400,391,6,430.08,420,11,"2","false",8.02,0,1,59,420,391,11,6,23
"60","3",400,412,6,423.36,436,11,"1","true",3.531,0,0,60,436,412,11,6,23
"61","0",200,191,6,197.3,189,1,"2","false",5.797,1,0,61,191,189,6,1,23
"62","0",200,200,6,192.59,193,1,"1","true",5.773,1,1,62,200,193,6,1,23
"63","5",-200,-205,6,-200.11,-205,11,"1","true",5.366,0,0,63,-205,-205,11,6,23
"64","5",-200,-196,6,-200.06,-196,11,"1","false",2.661,0,0,64,-196,-196,11,6,23
"65","6",-100,-105,6,-95.48,-100,1,"1","false",6.765,1,1,65,-105,-100,6,1,23
"66","2",400,406,6,374.25,380,1,"1","false",6.927,1,1,66,406,380,6,1,23
"67","2",400,389,6,387.97,377,1,"1","false",7.055,1,1,67,389,377,6,1,23
"68","5",-200,-192,6,-200.03,-192,11,"1","false",3.573,0,0,68,-192,-192,11,6,23
"69","5",-200,-205,6,-200.01,-205,11,"1","false",3.054,0,0,69,-205,-205,11,6,23
"70","5",-200,-196,6,-200.01,-196,11,"1","false",3.058,0,0,70,-196,-196,11,6,23
"71","3",400,403,6,428.06,431,11,"2","false",7.815,0,1,71,431,403,11,6,23
"72","7",-100,-105,6,-103.62,-109,11,"1","true",2.032,0,0,72,-109,-105,11,6,23
"73","4",-200,-207,6,-197.71,-205,1,"1","true",6.773,1,1,73,-207,-205,6,1,23
"74","5",-200,-202,6,-200,-202,11,"1","true",4.033,0,0,74,-202,-202,11,6,23
"75","5",-200,-208,6,-200,-208,11,"1","true",4.54,0,0,75,-208,-208,11,6,23
"76","5",-200,-203,6,-200,-203,11,"1","true",1.643,0,0,76,-203,-203,11,6,23
"77","5",-200,-193,6,-200,-193,11,"1","false",7.245,0,0,77,-193,-193,11,6,23
"78","4",-200,-204,6,-188.11,-192,1,"1","false",9.279,1,1,78,-204,-192,6,1,23
"79","4",-200,-195,6,-178.5,-174,1,"2","true",3.845,1,0,79,-195,-174,6,1,23
"80","7",-100,-104,6,-101.81,-106,11,"1","false",1.8,0,0,80,-106,-104,11,6,23
"81","4",-200,-191,6,-185.23,-177,1,"2","true",7.687,1,0,81,-191,-177,6,1,23
"82","4",-200,-191,6,-191.95,-183,1,"1","false",4.857,1,1,82,-191,-183,6,1,23
"83","4",-200,-190,6,-187.24,-178,1,"1","false",5.412,1,1,83,-190,-178,6,1,23
"84","5",-200,-207,6,-200,-207,11,"1","false",3.127,0,0,84,-207,-207,11,6,23
"85","7",-100,-99,6,-100.91,-100,11,"1","true",2.693,0,0,85,-100,-99,11,6,23
"86","4",-200,-204,6,-182.54,-187,1,"2","true",6.44,1,0,86,-204,-187,6,1,23
"87","5",-200,-207,6,-200,-207,11,"1","true",2.312,0,0,87,-207,-207,11,6,23
"88","7",-100,-99,6,-100.45,-100,11,"1","false",3.711,0,0,88,-100,-99,11,6,23
"89","2",400,402,6,393.98,396,1,"2","true",7.476,1,0,89,402,396,6,1,23
"90","5",-200,-198,6,-200,-198,11,"1","true",5.925,0,0,90,-198,-198,11,6,23
"91","5",-200,-201,6,-200,-201,11,"1","false",3.076,0,0,91,-201,-201,11,6,23
"92","7",-100,-98,6,-100.23,-99,11,"1","false",8.17,0,0,92,-99,-98,11,6,23
"93","5",-200,-206,6,-200,-206,11,"1","true",10.216,0,0,93,-206,-206,11,6,23
"94","7",-100,-101,6,-100.11,-101,11,"1","false",2.366,0,0,94,-101,-101,11,6,23
"95","2",400,419,6,387.26,405,1,"1","true",4.984,1,1,95,419,405,6,1,23
"96","7",-100,-96,6,-100.06,-97,11,"1","false",2.561,0,0,96,-97,-96,11,6,23
"97","5",-200,-207,6,-200,-207,11,"1","false",1.985,0,0,97,-207,-207,11,6,23
"98","7",-100,-101,6,-100.03,-101,11,"1","false",2.443,0,0,98,-101,-101,11,6,23
"99","7",-100,-104,6,-100.01,-104,11,"1","true",2.794,0,0,99,-104,-104,11,6,23
"100","2",400,388,6,391.97,380,1,"2","true",6.322,1,0,100,388,380,6,1,23
"101","7",-100,-103,6,-100.01,-103,11,"1","false",1.921,0,0,101,-103,-103,11,6,23
"102","7",-100,-105,6,-100,-105,11,"1","false",2.345,0,0,102,-105,-105,11,6,23
"103","5",-200,-191,6,-200,-191,11,"1","false",1.991,0,0,103,-191,-191,11,6,23
"104","7",-100,-96,6,-100,-96,11,"1","true",3.595,0,0,104,-96,-96,11,6,23
"105","5",-200,-194,6,-200,-194,11,"1","false",3.514,0,0,105,-194,-194,11,6,23
"106","7",-100,-105,6,-100,-105,11,"1","false",3.138,0,0,106,-105,-105,11,6,23
"107","7",-100,-100,6,-100,-100,11,"1","true",2.131,0,0,107,-100,-100,11,6,23
"108","7",-100,-104,6,-100,-104,11,"1","true",2.154,0,0,108,-104,-104,11,6,23
"109","7",-100,-97,6,-100,-97,11,"1","false",1.824,0,0,109,-97,-97,11,6,23
"110","5",-200,-201,6,-200,-201,11,"1","true",2.399,0,0,110,-201,-201,11,6,23
"111","7",-100,-101,6,-100,-101,11,"1","false",2.125,0,0,111,-101,-101,11,6,23
"112","7",-100,-102,6,-100,-102,11,"1","false",2.518,0,0,112,-102,-102,11,6,23
"113","5",-200,-210,6,-200,-210,11,"1","true",2.051,0,0,113,-210,-210,11,6,23
"114","5",-200,-207,6,-200,-207,11,"1","false",1.57,0,0,114,-207,-207,11,6,23
"115","5",-200,-206,6,-200,-206,11,"1","false",2.301,0,0,115,-206,-206,11,6,23
"116","5",-200,-206,6,-200,-206,11,"1","true",1.886,0,0,116,-206,-206,11,6,23
"117","5",-200,-193,6,-200,-193,11,"1","false",1.804,0,0,117,-193,-193,11,6,23
"118","7",-100,-102,6,-100,-102,11,"1","true",2.146,0,0,118,-102,-102,11,6,23
"119","7",-100,-96,6,-100,-96,11,"1","true",2.536,0,0,119,-96,-96,11,6,23
"120","5",-200,-201,6,-200,-201,11,"1","true",1.526,0,0,120,-201,-201,11,6,23
"121","7",-100,-104,6,-100,-104,11,"1","false",1.588,0,0,121,-104,-104,11,6,23
"122","7",-100,-104,6,-100,-104,11,"1","true",2.394,0,0,122,-104,-104,11,6,23
"123","5",-200,-193,6,-200,-193,11,"1","true",2.639,0,0,123,-193,-193,11,6,23
"124","7",-100,-99,6,-100,-99,11,"1","false",2.787,0,0,124,-99,-99,11,6,23
"125","5",-200,-209,6,-200,-209,11,"1","true",1.93,0,0,125,-209,-209,11,6,23
"126","5",-200,-207,6,-200,-207,11,"1","false",2.144,0,0,126,-207,-207,11,6,23
"127","5",-200,-202,6,-200,-202,11,"1","true",2.103,0,0,127,-202,-202,11,6,23
"128","7",-100,-102,6,-100,-102,11,"1","false",1.93,0,0,128,-102,-102,11,6,23
"129","7",-100,-98,6,-100,-98,11,"1","true",1.643,0,0,129,-98,-98,11,6,23
"130","5",-200,-206,6,-200,-206,11,"1","false",1.621,0,0,130,-206,-206,11,6,23
"131","5",-200,-201,6,-200,-201,11,"1","false",1.735,0,0,131,-201,-201,11,6,23
"132","7",-100,-102,6,-100,-102,11,"1","true",1.771,0,0,132,-102,-102,11,6,23
"133","7",-100,-98,6,-100,-98,11,"1","true",1.736,0,0,133,-98,-98,11,6,23
"134","7",-100,-104,6,-100,-104,11,"1","true",1.999,0,0,134,-104,-104,11,6,23
"135","5",-200,-197,6,-200,-197,11,"1","false",3.945,0,0,135,-197,-197,11,6,23
"136","5",-200,-204,6,-200,-204,11,"1","false",2.353,0,0,136,-204,-204,11,6,23
"137","7",-100,-97,6,-100,-97,11,"1","false",2.384,0,0,137,-97,-97,11,6,23
"138","5",-200,-195,6,-200,-195,11,"1","true",1.529,0,0,138,-195,-195,11,6,23
"139","5",-200,-191,6,-200,-191,11,"1","true",4.28,0,0,139,-191,-191,11,6,23
"140","5",-200,-201,6,-200,-201,11,"1","true",2.512,0,0,140,-201,-201,11,6,23
"141","7",-100,-103,6,-100,-103,11,"1","false",2.532,0,0,141,-103,-103,11,6,23
"142","5",-200,-198,6,-200,-198,11,"1","true",2.1,0,0,142,-198,-198,11,6,23
"143","5",-200,-208,6,-200,-208,11,"1","true",2.083,0,0,143,-208,-208,11,6,23
"144","7",-100,-96,6,-100,-96,11,"1","true",1.717,0,0,144,-96,-96,11,6,23
"145","5",-200,-208,6,-200,-208,11,"1","true",1.981,0,0,145,-208,-208,11,6,23
"146","5",-200,-207,6,-200,-207,11,"1","false",1.942,0,0,146,-207,-207,11,6,23
"147","5",-200,-192,6,-200,-192,11,"1","false",6.232,0,0,147,-192,-192,11,6,23
"148","7",-100,-102,6,-100,-102,11,"1","true",2.832,0,0,148,-102,-102,11,6,23
"149","7",-100,-99,6,-100,-99,11,"1","true",1.8,0,0,149,-99,-99,11,6,23
"150","7",-100,-97,6,-100,-97,11,"1","false",3.128,0,0,150,-97,-97,11,6,23
"151","7",-100,-101,6,-100,-101,11,"1","false",1.966,0,0,151,-101,-101,11,6,23
"152","5",-200,-208,6,-200,-208,11,"1","true",2.1,0,0,152,-208,-208,11,6,23
"153","7",-100,-95,6,-100,-95,11,"1","false",2.032,0,0,153,-95,-95,11,6,23
"154","5",-200,-205,6,-200,-205,11,"1","false",4.051,0,0,154,-205,-205,11,6,23
"155","7",-100,-97,6,-100,-97,11,"1","false",2.225,0,0,155,-97,-97,11,6,23
"156","5",-200,-197,6,-200,-197,11,"1","true",1.796,0,0,156,-197,-197,11,6,23
"157","7",-100,-100,6,-100,-100,11,"1","false",1.899,0,0,157,-100,-100,11,6,23
"158","5",-200,-208,6,-200,-208,11,"1","true",2.586,0,0,158,-208,-208,11,6,23
"159","7",-100,-97,6,-100,-97,11,"1","false",1.997,0,0,159,-97,-97,11,6,23
"160","5",-200,-200,6,-200,-200,11,"1","true",2.294,0,0,160,-200,-200,11,6,23
"161","5",-200,-200,6,-200,-200,11,"1","false",2.492,0,0,161,-200,-200,11,6,23
"162","7",-100,-98,6,-100,-98,11,"1","true",16.233,0,0,162,-98,-98,11,6,23
"163","5",-200,-204,6,-200,-204,11,"1","false",2.385,0,0,163,-204,-204,11,6,23
"164","5",-200,-201,6,-200,-201,11,"1","false",1.688,0,0,164,-201,-201,11,6,23
"165","5",-200,-202,6,-200,-202,11,"1","false",1.469,0,0,165,-202,-202,11,6,23
"166","7",-100,-104,6,-100,-104,11,"1","false",4.137,0,0,166,-104,-104,11,6,23
"167","5",-200,-205,6,-200,-205,11,"1","true",10.004,0,0,167,-205,-205,11,6,23
"168","7",-100,-95,6,-100,-95,11,"1","true",2.336,0,0,168,-95,-95,11,6,23
"169","5",-200,-198,6,-200,-198,11,"1","true",1.763,0,0,169,-198,-198,11,6,23
"170","5",-200,-198,6,-200,-198,11,"1","false",3.13,0,0,170,-198,-198,11,6,23
"171","5",-200,-198,6,-200,-198,11,"1","false",2.159,0,0,171,-198,-198,11,6,23
"172","7",-100,-102,6,-100,-102,11,"1","false",4.201,0,0,172,-102,-102,11,6,23
"173","7",-100,-102,6,-100,-102,11,"1","false",2.465,0,0,173,-102,-102,11,6,23
"174","5",-200,-193,6,-200,-193,11,"1","true",2.605,0,0,174,-193,-193,11,6,23
"175","5",-200,-195,6,-200,-195,11,"1","false",2.187,0,0,175,-195,-195,11,6,23
"176","7",-100,-101,6,-100,-101,11,"1","true",2.433,0,0,176,-101,-101,11,6,23
"177","7",-100,-101,6,-100,-101,11,"1","true",1.867,0,0,177,-101,-101,11,6,23
"178","5",-200,-208,6,-200,-208,11,"1","true",1.681,0,0,178,-208,-208,11,6,23
"179","5",-200,-191,6,-200,-191,11,"1","true",20.485,0,0,179,-191,-191,11,6,23
"180","7",-100,-103,6,-100,-103,11,"1","false",6.892,0,0,180,-103,-103,11,6,23
"181","5",-200,-191,6,-200,-191,11,"1","false",2.799,0,0,181,-191,-191,11,6,23
"182","5",-200,-200,6,-200,-200,11,"1","true",8.254,0,0,182,-200,-200,11,6,23
"183","7",-100,-105,6,-100,-105,11,"1","true",4.313,0,0,183,-105,-105,11,6,23
"184","7",-100,-103,6,-100,-103,11,"1","false",1.833,0,0,184,-103,-103,11,6,23
"185","5",-200,-200,6,-200,-200,11,"1","true",1.523,0,0,185,-200,-200,11,6,23
"186","7",-100,-105,6,-100,-105,11,"1","true",1.81,0,0,186,-105,-105,11,6,23
"187","5",-200,-208,6,-200,-208,11,"1","true",2.064,0,0,187,-208,-208,11,6,23
"188","5",-200,-203,6,-200,-203,11,"1","true",1.457,0,0,188,-203,-203,11,6,23
"189","5",-200,-200,6,-200,-200,11,"1","false",1.782,0,0,189,-200,-200,11,6,23
"190","7",-100,-103,6,-100,-103,11,"1","false",1.738,0,0,190,-103,-103,11,6,23
"191","7",-100,-105,6,-100,-105,11,"1","false",1.696,0,0,191,-105,-105,11,6,23
"192","5",-200,-190,6,-200,-190,11,"1","true",2.076,0,0,192,-190,-190,11,6,23
"193","7",-100,-99,6,-100,-99,11,"1","true",1.905,0,0,193,-99,-99,11,6,23
"194","7",-100,-96,6,-100,-96,11,"1","false",2.163,0,0,194,-96,-96,11,6,23
"195","7",-100,-100,6,-100,-100,11,"1","true",1.579,0,0,195,-100,-100,11,6,23
"196","7",-100,-101,6,-100,-101,11,"1","true",1.832,0,0,196,-101,-101,11,6,23
"197","5",-200,-204,6,-200,-204,11,"1","true",1.909,0,0,197,-204,-204,11,6,23
"198","7",-100,-104,6,-100,-104,11,"1","false",2.673,0,0,198,-104,-104,11,6,23
"199","5",-200,-194,6,-200,-194,11,"1","true",1.95,0,0,199,-194,-194,11,6,23
"200","7",-100,-102,6,-100,-102,11,"1","true",1.766,0,0,200,-102,-102,11,6,23
"201","5",-200,-192,6,-200,-192,11,"1","false",1.887,0,0,201,-192,-192,11,6,23
"202","7",-100,-99,6,-100,-99,11,"1","true",1.374,0,0,202,-99,-99,11,6,23
"203","7",-100,-101,6,-100,-101,11,"1","true",1.244,0,0,203,-101,-101,11,6,23
"204","7",-100,-104,6,-100,-104,11,"1","true",1.338,0,0,204,-104,-104,11,6,23
"205","5",-200,-208,6,-200,-208,11,"1","true",1.279,0,0,205,-208,-208,11,6,23
"206","5",-200,-203,6,-200,-203,11,"1","true",1.206,0,0,206,-203,-203,11,6,23
"207","7",-100,-101,6,-100,-101,11,"1","true",1.318,0,0,207,-101,-101,11,6,23
"208","7",-100,-105,6,-100,-105,11,"1","false",1.538,0,0,208,-105,-105,11,6,23
"209","7",-100,-102,6,-100,-102,11,"1","true",1.016,0,0,209,-102,-102,11,6,23
"210","7",-100,-102,6,-100,-102,11,"1","true",3.049,0,0,210,-102,-102,11,6,23
"211","7",-100,-104,6,-100,-104,11,"1","false",1.417,0,0,211,-104,-104,11,6,23
"212","5",-200,-206,6,-200,-206,11,"1","true",1.379,0,0,212,-206,-206,11,6,23
"213","5",-200,-196,6,-200,-196,11,"1","true",2.34,0,0,213,-196,-196,11,6,23
"214","5",-200,-196,6,-200,-196,11,"1","true",1.55,0,0,214,-196,-196,11,6,23
"215","5",-200,-205,6,-200,-205,11,"1","false",1.548,0,0,215,-205,-205,11,6,23
"216","7",-100,-103,6,-100,-103,11,"1","false",1.63,0,0,216,-103,-103,11,6,23
"217","5",-200,-203,6,-200,-203,11,"1","false",3.788,0,0,217,-203,-203,11,6,23
"218","5",-200,-208,6,-200,-208,11,"1","true",1.929,0,0,218,-208,-208,11,6,23
"219","7",-100,-96,6,-100,-96,11,"1","true",1.37,0,0,219,-96,-96,11,6,23
"220","7",-100,-96,6,-100,-96,11,"1","false",1.529,0,0,220,-96,-96,11,6,23
"221","5",-200,-195,6,-200,-195,11,"1","false",4.344,0,0,221,-195,-195,11,6,23
"222","7",-100,-97,6,-100,-97,11,"1","false",3.735,0,0,222,-97,-97,11,6,23
"223","7",-100,-105,6,-100,-105,11,"1","false",0.957,0,0,223,-105,-105,11,6,23
"224","5",-200,-198,6,-200,-198,11,"1","true",2.527,0,0,224,-198,-198,11,6,23
"225","5",-200,-207,6,-200,-207,11,"1","false",2.227,0,0,225,-207,-207,11,6,23
"226","7",-100,-95,6,-100,-95,11,"1","true",1.387,0,0,226,-95,-95,11,6,23
"227","7",-100,-105,6,-100,-105,11,"1","true",1.496,0,0,227,-105,-105,11,6,23
"228","7",-100,-96,6,-100,-96,11,"1","true",1.385,0,0,228,-96,-96,11,6,23
"229","7",-100,-97,6,-100,-97,11,"1","false",1.882,0,0,229,-97,-97,11,6,23
"230","5",-200,-191,6,-200,-191,11,"1","true",1.427,0,0,230,-191,-191,11,6,23
"231","5",-200,-210,6,-200,-210,11,"1","false",1.415,0,0,231,-210,-210,11,6,23
"232","7",-100,-95,6,-100,-95,11,"1","false",1.401,0,0,232,-95,-95,11,6,23
"233","5",-200,-207,6,-200,-207,11,"1","true",1.45,0,0,233,-207,-207,11,6,23
"234","5",-200,-199,6,-200,-199,11,"1","true",0.992,0,0,234,-199,-199,11,6,23
"235","7",-100,-104,6,-100,-104,11,"1","false",1.646,0,0,235,-104,-104,11,6,23
"236","5",-200,-198,6,-200,-198,11,"1","true",1.468,0,0,236,-198,-198,11,6,23
"237","5",-200,-198,6,-200,-198,11,"1","false",1.623,0,0,237,-198,-198,11,6,23
"238","7",-100,-103,6,-100,-103,11,"1","false",1.301,0,0,238,-103,-103,11,6,23
"239","5",-200,-200,6,-200,-200,11,"1","true",1.407,0,0,239,-200,-200,11,6,23
"240","7",-100,-101,6,-100,-101,11,"1","false",1.458,0,0,240,-101,-101,11,6,23
"241","7",-100,-100,6,-100,-100,11,"1","false",1.769,0,0,241,-100,-100,11,6,23
"242","5",-200,-202,6,-200,-202,11,"1","true",1.674,0,0,242,-202,-202,11,6,23
"243","5",-200,-195,6,-200,-195,11,"1","true",5.741,0,0,243,-195,-195,11,6,23
"244","5",-200,-203,6,-200,-203,11,"1","false",2.154,0,0,244,-203,-203,11,6,23
"245","7",-100,-97,6,-100,-97,11,"1","false",1.749,0,0,245,-97,-97,11,6,23
"246","7",-100,-101,6,-100,-101,11,"1","false",1.152,0,0,246,-101,-101,11,6,23
"247","7",-100,-103,6,-100,-103,11,"1","false",1.456,0,0,247,-103,-103,11,6,23
"248","7",-100,-100,6,-100,-100,11,"1","false",1.43,0,0,248,-100,-100,11,6,23
"249","7",-100,-103,6,-100,-103,11,"1","true",1.892,0,0,249,-103,-103,11,6,23
"250","5",-200,-207,6,-200,-207,11,"1","true",1.426,0,0,250,-207,-207,11,6,23
"251","5",-200,-195,6,-200,-195,11,"1","false",1.315,0,0,251,-195,-195,11,6,23
"252","5",-200,-205,6,-200,-205,11,"1","true",1.462,0,0,252,-205,-205,11,6,23
"253","5",-200,-191,6,-200,-191,11,"1","true",1.914,0,0,253,-191,-191,11,6,23
"254","5",-200,-193,6,-200,-193,11,"1","true",1.202,0,0,254,-193,-193,11,6,23
"255","7",-100,-96,6,-100,-96,11,"1","true",1.35,0,0,255,-96,-96,11,6,23
"256","5",-200,-195,6,-200,-195,11,"1","false",1.268,0,0,256,-195,-195,11,6,23
"257","7",-100,-100,6,-100,-100,11,"1","false",1.177,0,0,257,-100,-100,11,6,23
"258","7",-100,-100,6,-100,-100,11,"1","false",0.895,0,0,258,-100,-100,11,6,23
"259","7",-100,-96,6,-100,-96,11,"1","false",1.091,0,0,259,-96,-96,11,6,23
"260","5",-200,-210,6,-200,-210,11,"1","true",1.123,0,0,260,-210,-210,11,6,23
"261","7",-100,-102,6,-100,-102,11,"1","true",0.955,0,0,261,-102,-102,11,6,23
"262","5",-200,-193,6,-200,-193,11,"1","false",1.19,0,0,262,-193,-193,11,6,23
"263","5",-200,-209,6,-200,-209,11,"2","true",1.961,0,1,263,-209,-209,11,6,23
"264","7",-100,-101,6,-100,-101,11,"1","true",2.189,0,0,264,-101,-101,11,6,23
"265","7",-100,-96,6,-100,-96,11,"1","false",1.497,0,0,265,-96,-96,11,6,23
"266","7",-100,-104,6,-100,-104,11,"1","true",1.029,0,0,266,-104,-104,11,6,23
"267","7",-100,-98,6,-100,-98,11,"1","true",1.171,0,0,267,-98,-98,11,6,23
"268","7",-100,-103,6,-100,-103,11,"1","false",1.27,0,0,268,-103,-103,11,6,23
"269","7",-100,-101,6,-100,-101,11,"1","true",1.311,0,0,269,-101,-101,11,6,23
"270","7",-100,-104,6,-100,-104,11,"1","true",1.386,0,0,270,-104,-104,11,6,23
"271","7",-100,-100,6,-100,-100,11,"1","true",1.676,0,0,271,-100,-100,11,6,23
"272","7",-100,-100,6,-100,-100,11,"1","true",0.925,0,0,272,-100,-100,11,6,23
"273","7",-100,-103,6,-100,-103,11,"1","true",1.191,0,0,273,-103,-103,11,6,23
"274","7",-100,-104,6,-100,-104,11,"1","false",2.154,0,0,274,-104,-104,11,6,23
"275","7",-100,-102,6,-100,-102,11,"1","true",1.729,0,0,275,-102,-102,11,6,23
"276","7",-100,-101,6,-100,-101,11,"1","true",1.287,0,0,276,-101,-101,11,6,23
"277","7",-100,-96,6,-100,-96,11,"1","true",1.393,0,0,277,-96,-96,11,6,23
"278","7",-100,-100,6,-100,-100,11,"1","true",0.875,0,0,278,-100,-100,11,6,23
"279","7",-100,-102,6,-100,-102,11,"1","false",1.274,0,0,279,-102,-102,11,6,23
"280","7",-100,-101,6,-100,-101,11,"1","false",1.079,0,0,280,-101,-101,11,6,23
"281","7",-100,-104,6,-100,-104,11,"1","false",1.037,0,0,281,-104,-104,11,6,23
"282","7",-100,-95,6,-100,-95,11,"1","false",1.089,0,0,282,-95,-95,11,6,23
"283","7",-100,-101,6,-100,-101,11,"1","false",0.938,0,0,283,-101,-101,11,6,23
"284","7",-100,-102,6,-100,-102,11,"1","true",1.664,0,0,284,-102,-102,11,6,23
"285","7",-100,-105,6,-100,-105,11,"1","false",1.657,0,0,285,-105,-105,11,6,23
"286","7",-100,-103,6,-100,-103,11,"1","false",3.248,0,0,286,-103,-103,11,6,23
"287","7",-100,-99,6,-100,-99,11,"1","true",1.625,0,0,287,-99,-99,11,6,23
"288","7",-100,-100,6,-100,-100,11,"1","true",0.853,0,0,288,-100,-100,11,6,23
"289","7",-100,-101,6,-100,-101,11,"1","true",0.88,0,0,289,-101,-101,11,6,23
"290","7",-100,-97,6,-100,-97,11,"1","true",0.848,0,0,290,-97,-97,11,6,23
"291","7",-100,-98,6,-100,-98,11,"1","false",3.192,0,0,291,-98,-98,11,6,23
"292","7",-100,-100,6,-100,-100,11,"1","false",1.295,0,0,292,-100,-100,11,6,23
"293","7",-100,-95,6,-100,-95,11,"1","true",1.098,0,0,293,-95,-95,11,6,23
"294","7",-100,-99,6,-100,-99,11,"1","true",0.767,0,0,294,-99,-99,11,6,23
"295","7",-100,-102,6,-100,-102,11,"1","false",1.184,0,0,295,-102,-102,11,6,23
"296","7",-100,-97,6,-100,-97,11,"1","false",1.103,0,0,296,-97,-97,11,6,23
"297","7",-100,-96,6,-100,-96,11,"1","false",0.788,0,0,297,-96,-96,11,6,23
"298","7",-100,-96,6,-100,-96,11,"1","false",0.695,0,0,298,-96,-96,11,6,23
"299","7",-100,-100,6,-100,-100,11,"1","true",1.1,0,0,299,-100,-100,11,6,23
"300","7",-100,-104,6,-100,-104,11,"1","false",1.471,0,0,300,-104,-104,11,6,23
"301","7",-100,-95,6,-100,-95,11,"1","false",0.889,0,0,301,-95,-95,11,6,23
"302","7",-100,-104,6,-100,-104,11,"1","false",1.011,0,0,302,-104,-104,11,6,23
"303","7",-100,-98,6,-100,-98,11,"1","true",1.474,0,0,303,-98,-98,11,6,23
"304","7",-100,-97,6,-100,-97,11,"1","false",1.449,0,0,304,-97,-97,11,6,23
"305","7",-100,-102,6,-100,-102,11,"1","false",1.122,0,0,305,-102,-102,11,6,23
"306","7",-100,-104,6,-100,-104,11,"1","false",0.847,0,0,306,-104,-104,11,6,23
"307","7",-100,-103,6,-100,-103,11,"1","true",1.21,0,0,307,-103,-103,11,6,23
"308","7",-100,-98,6,-100,-98,11,"1","true",1.046,0,0,308,-98,-98,11,6,23
"309","7",-100,-104,6,-100,-104,11,"1","true",1.179,0,0,309,-104,-104,11,6,23
"310","7",-100,-101,6,-100,-101,11,"1","false",1.388,0,0,310,-101,-101,11,6,23
"311","7",-100,-104,6,-100,-104,11,"1","true",1.494,0,0,311,-104,-104,11,6,23
"312","7",-100,-102,6,-100,-102,11,"1","false",1.406,0,0,312,-102,-102,11,6,23
"313","7",-100,-103,6,-100,-103,11,"1","false",0.82,0,0,313,-103,-103,11,6,23
"314","7",-100,-105,6,-100,-105,11,"1","false",0.922,0,0,314,-105,-105,11,6,23
"315","7",-100,-99,6,-100,-99,11,"1","false",1.129,0,0,315,-99,-99,11,6,23
"316","7",-100,-98,6,-100,-98,11,"1","false",1.144,0,0,316,-98,-98,11,6,23
"317","7",-100,-97,6,-100,-97,11,"1","true",1.497,0,0,317,-97,-97,11,6,23
"318","7",-100,-102,6,-100,-102,11,"1","false",1.229,0,0,318,-102,-102,11,6,23
"319","7",-100,-104,6,-100,-104,11,"1","false",0.78,0,0,319,-104,-104,11,6,23
"320","7",-100,-95,6,-100,-95,11,"1","false",0.713,0,0,320,-95,-95,11,6,23
"321","7",-100,-98,6,-100,-98,11,"1","true",1.277,0,0,321,-98,-98,11,6,23
"322","7",-100,-96,6,-100,-96,11,"1","true",0.637,0,0,322,-96,-96,11,6,23
"323","7",-100,-100,6,-100,-100,11,"1","true",0.738,0,0,323,-100,-100,11,6,23
"324","7",-100,-98,6,-100,-98,11,"1","true",0.571,0,0,324,-98,-98,11,6,23
"325","7",-100,-100,6,-100,-100,11,"1","true",0.949,0,0,325,-100,-100,11,6,23
"326","7",-100,-101,6,-100,-101,11,"1","true",0.679,0,0,326,-101,-101,11,6,23
"327","7",-100,-101,6,-100,-101,11,"1","false",1.958,0,0,327,-101,-101,11,6,23
"328","7",-100,-99,6,-100,-99,11,"1","true",1.516,0,0,328,-99,-99,11,6,23
"329","7",-100,-95,6,-100,-95,11,"1","true",1.167,0,0,329,-95,-95,11,6,23
"330","7",-100,-103,6,-100,-103,11,"1","true",1.396,0,0,330,-103,-103,11,6,23
"331","7",-100,-103,6,-100,-103,11,"1","true",1.109,0,0,331,-103,-103,11,6,23
"332","7",-100,-96,6,-100,-96,11,"1","false",1.758,0,0,332,-96,-96,11,6,23
"333","7",-100,-103,6,-100,-103,11,"1","false",2.032,0,0,333,-103,-103,11,6,23
"334","7",-100,-98,6,-100,-98,11,"1","true",1.368,0,0,334,-98,-98,11,6,23
"335","7",-100,-104,6,-100,-104,11,"1","false",1.36,0,0,335,-104,-104,11,6,23
"336","7",-100,-96,6,-100,-96,11,"1","false",0.864,0,0,336,-96,-96,11,6,23
"337","7",-100,-97,6,-100,-97,11,"1","false",2.047,0,0,337,-97,-97,11,6,23
"338","7",-100,-98,6,-100,-98,11,"1","true",1.601,0,0,338,-98,-98,11,6,23
"339","7",-100,-103,6,-100,-103,11,"1","true",9.534,0,0,339,-103,-103,11,6,23
"340","7",-100,-98,6,-100,-98,11,"1","true",0.73,0,0,340,-98,-98,11,6,23
"341","7",-100,-97,6,-100,-97,11,"1","true",0.687,0,0,341,-97,-97,11,6,23
"342","7",-100,-101,6,-100,-101,11,"1","false",1.114,0,0,342,-101,-101,11,6,23
"343","7",-100,-105,6,-100,-105,11,"1","true",1.646,0,0,343,-105,-105,11,6,23
"344","7",-100,-95,6,-100,-95,11,"1","false",1.288,0,0,344,-95,-95,11,6,23
"345","7",-100,-95,6,-100,-95,11,"1","true",1.254,0,0,345,-95,-95,11,6,23
"346","7",-100,-97,6,-100,-97,11,"1","true",1.363,0,0,346,-97,-97,11,6,23
"347","7",-100,-100,6,-100,-100,11,"1","false",1.755,0,0,347,-100,-100,11,6,23
"348","7",-100,-96,6,-100,-96,11,"1","false",1.055,0,0,348,-96,-96,11,6,23
"349","7",-100,-99,6,-100,-99,11,"1","false",1.394,0,0,349,-99,-99,11,6,23
"350","7",-100,-96,6,-100,-96,11,"1","true",1.512,0,0,350,-96,-96,11,6,23
"351","7",-100,-98,6,-100,-98,11,"1","true",1.549,0,0,351,-98,-98,11,6,23
"352","7",-100,-100,6,-100,-100,11,"1","true",0.972,0,0,352,-100,-100,11,6,23
"353","7",-100,-96,6,-100,-96,11,"1","false",1.647,0,0,353,-96,-96,11,6,23
"354","7",-100,-102,6,-100,-102,11,"1","true",1.517,0,0,354,-102,-102,11,6,23
"355","7",-100,-103,6,-100,-103,11,"1","false",1.257,0,0,355,-103,-103,11,6,23
"356","7",-100,-100,6,-100,-100,11,"1","true",1.148,0,0,356,-100,-100,11,6,23
"357","7",-100,-98,6,-100,-98,11,"1","false",1.437,0,0,357,-98,-98,11,6,23
"358","7",-100,-102,6,-100,-102,11,"1","true",1.575,0,0,358,-102,-102,11,6,23
"359","7",-100,-104,6,-100,-104,11,"1","false",5.367,0,0,359,-104,-104,11,6,23
"360","7",-100,-103,6,-100,-103,11,"1","false",0.613,0,0,360,-103,-103,11,6,23
"361","7",-100,-104,6,-100,-104,11,"1","false",0.833,0,0,361,-104,-104,11,6,23
"362","7",-100,-99,6,-100,-99,11,"1","false",0.758,0,0,362,-99,-99,11,6,23
"363","7",-100,-101,6,-100,-101,11,"1","false",0.743,0,0,363,-101,-101,11,6,23
"364","7",-100,-97,6,-100,-97,11,"1","false",1.715,0,0,364,-97,-97,11,6,23
"365","7",-100,-101,6,-100,-101,11,"1","true",1.264,0,0,365,-101,-101,11,6,23
"366","7",-100,-104,6,-100,-104,11,"1","false",1.574,0,0,366,-104,-104,11,6,23
"367","7",-100,-97,6,-100,-97,11,"1","false",0.995,0,0,367,-97,-97,11,6,23
"368","7",-100,-95,6,-100,-95,11,"1","true",1.377,0,0,368,-95,-95,11,6,23
"369","7",-100,-104,6,-100,-104,11,"1","true",1.127,0,0,369,-104,-104,11,6,23
"370","7",-100,-95,6,-100,-95,11,"1","true",0.904,0,0,370,-95,-95,11,6,23
"371","7",-100,-100,6,-100,-100,11,"1","false",2.216,0,0,371,-100,-100,11,6,23
"372","7",-100,-97,6,-100,-97,11,"1","false",21.952,0,0,372,-97,-97,11,6,23
"373","7",-100,-103,6,-100,-103,11,"1","true",1.101,0,0,373,-103,-103,11,6,23
"374","7",-100,-98,6,-100,-98,11,"1","true",0.702,0,0,374,-98,-98,11,6,23
"375","7",-100,-102,6,-100,-102,11,"1","true",1.402,0,0,375,-102,-102,11,6,23
"376","7",-100,-98,6,-100,-98,11,"1","false",1.414,0,0,376,-98,-98,11,6,23
"377","7",-100,-99,6,-100,-99,11,"1","true",1.07,0,0,377,-99,-99,11,6,23
"378","7",-100,-101,6,-100,-101,11,"1","true",0.624,0,0,378,-101,-101,11,6,23
"379","7",-100,-103,6,-100,-103,11,"1","true",0.501,0,0,379,-103,-103,11,6,23
"380","7",-100,-104,6,-100,-104,11,"1","false",1.001,0,0,380,-104,-104,11,6,23
"381","7",-100,-97,6,-100,-97,11,"1","true",1.579,0,0,381,-97,-97,11,6,23
"382","7",-100,-103,6,-100,-103,11,"1","true",11.089,0,0,382,-103,-103,11,6,23
"383","7",-100,-102,6,-100,-102,11,"1","false",1.492,0,0,383,-102,-102,11,6,23
"384","7",-100,-100,6,-100,-100,11,"1","false",0.667,0,0,384,-100,-100,11,6,23
"385","7",-100,-104,6,-100,-104,11,"1","true",1.859,0,0,385,-104,-104,11,6,23
"386","7",-100,-103,6,-100,-103,11,"1","false",1.605,0,0,386,-103,-103,11,6,23
"387","7",-100,-104,6,-100,-104,11,"1","true",1.513,0,0,387,-104,-104,11,6,23
"388","7",-100,-105,6,-100,-105,11,"1","false",1.867,0,0,388,-105,-105,11,6,23
"389","7",-100,-95,6,-100,-95,11,"1","false",1.064,0,0,389,-95,-95,11,6,23
"390","7",-100,-102,6,-100,-102,11,"1","false",1.939,0,0,390,-102,-102,11,6,23
"391","7",-100,-100,6,-100,-100,11,"1","false",0.587,0,0,391,-100,-100,11,6,23
"392","7",-100,-103,6,-100,-103,11,"1","true",1.165,0,0,392,-103,-103,11,6,23
"393","7",-100,-102,6,-100,-102,11,"1","true",0.838,0,0,393,-102,-102,11,6,23
"394","7",-100,-98,6,-100,-98,11,"1","false",1.903,0,0,394,-98,-98,11,6,23
"395","7",-100,-96,6,-100,-96,11,"1","false",1.098,0,0,395,-96,-96,11,6,23
"396","7",-100,-104,6,-100,-104,11,"1","true",1.395,0,0,396,-104,-104,11,6,23
"397","7",-100,-96,6,-100,-96,11,"1","true",1.07,0,0,397,-96,-96,11,6,23
"398","7",-100,-97,6,-100,-97,11,"1","true",1.147,0,0,398,-97,-97,11,6,23
"399","7",-100,-97,6,-100,-97,11,"1","true",0.5,0,0,399,-97,-97,11,6,23
"400","7",-100,-104,6,-100,-104,11,"1","true",0.612,0,0,400,-104,-104,11,6,23
"401","7",-100,-96,6,-100,-96,11,"1","false",1.287,0,0,401,-96,-96,11,6,23
"402","7",-100,-97,6,-100,-97,11,"1","true",1.304,0,0,402,-97,-97,11,6,23
"403","7",-100,-101,6,-100,-101,11,"1","true",0.563,0,0,403,-101,-101,11,6,23
"404","7",-100,-96,6,-100,-96,11,"1","false",1.188,0,0,404,-96,-96,11,6,23
"405","7",-100,-103,6,-100,-103,11,"1","true",0.904,0,0,405,-103,-103,11,6,23
"406","7",-100,-101,6,-100,-101,11,"1","true",0.724,0,0,406,-101,-101,11,6,23
"407","7",-100,-103,6,-100,-103,11,"1","true",0.659,0,0,407,-103,-103,11,6,23
"408","7",-100,-96,6,-100,-96,11,"1","true",0.803,0,0,408,-96,-96,11,6,23
"409","7",-100,-99,6,-100,-99,11,"1","false",2.956,0,0,409,-99,-99,11,6,23
"410","7",-100,-100,6,-100,-100,11,"1","false",0.61,0,0,410,-100,-100,11,6,23
"411","7",-100,-104,6,-100,-104,11,"1","false",0.815,0,0,411,-104,-104,11,6,23
"412","7",-100,-102,6,-100,-102,11,"1","true",1.404,0,0,412,-102,-102,11,6,23
"413","7",-100,-100,6,-100,-100,11,"1","true",0.661,0,0,413,-100,-100,11,6,23
"414","7",-100,-103,6,-100,-103,11,"1","true",0.678,0,0,414,-103,-103,11,6,23
"415","7",-100,-102,6,-100,-102,11,"1","false",1.255,0,0,415,-102,-102,11,6,23
"416","7",-100,-96,6,-100,-96,11,"1","false",7.573,0,0,416,-96,-96,11,6,23
"417","7",-100,-95,6,-100,-95,11,"1","true",1.349,0,0,417,-95,-95,11,6,23
"418","7",-100,-102,6,-100,-102,11,"1","false",1.23,0,0,418,-102,-102,11,6,23
"419","7",-100,-96,6,-100,-96,11,"1","false",0.91,0,0,419,-96,-96,11,6,23
"420","7",-100,-102,6,-100,-102,11,"1","false",1.115,0,0,420,-102,-102,11,6,23
"421","7",-100,-99,6,-100,-99,11,"1","false",0.646,0,0,421,-99,-99,11,6,23
"422","7",-100,-103,6,-100,-103,11,"1","false",0.71,0,0,422,-103,-103,11,6,23
"423","7",-100,-98,6,-100,-98,11,"1","true",1.319,0,0,423,-98,-98,11,6,23
"424","7",-100,-104,6,-100,-104,11,"1","true",0.676,0,0,424,-104,-104,11,6,23
"425","7",-100,-95,6,-100,-95,11,"1","true",0.801,0,0,425,-95,-95,11,6,23
"426","7",-100,-95,6,-100,-95,11,"1","true",0.657,0,0,426,-95,-95,11,6,23
"427","7",-100,-96,6,-100,-96,11,"1","false",5.248,0,0,427,-96,-96,11,6,23
"428","7",-100,-103,6,-100,-103,11,"1","false",0.783,0,0,428,-103,-103,11,6,23
"429","7",-100,-104,6,-100,-104,11,"1","false",1.542,0,0,429,-104,-104,11,6,23
"430","7",-100,-97,6,-100,-97,11,"1","true",1.759,0,0,430,-97,-97,11,6,23
"431","7",-100,-99,6,-100,-99,11,"1","true",0.998,0,0,431,-99,-99,11,6,23
"432","7",-100,-100,6,-100,-100,11,"1","false",1.84,0,0,432,-100,-100,11,6,23
"433","7",-100,-102,6,-100,-102,11,"1","true",1.245,0,0,433,-102,-102,11,6,23
"434","7",-100,-100,6,-100,-100,11,"1","false",2.477,0,0,434,-100,-100,11,6,23
"435","7",-100,-104,6,-100,-104,11,"1","true",1.745,0,0,435,-104,-104,11,6,23
"436","7",-100,-101,6,-100,-101,11,"1","true",0.714,0,0,436,-101,-101,11,6,23
"437","7",-100,-104,6,-100,-104,11,"1","false",1.696,0,0,437,-104,-104,11,6,23
"438","7",-100,-103,6,-100,-103,11,"1","false",0.545,0,0,438,-103,-103,11,6,23
"439","7",-100,-103,6,-100,-103,11,"1","true",1.358,0,0,439,-103,-103,11,6,23
"440","7",-100,-102,6,-100,-102,11,"1","true",2.467,0,0,440,-102,-102,11,6,23
"441","7",-100,-100,6,-100,-100,11,"1","true",1.391,0,0,441,-100,-100,11,6,23
"442","7",-100,-96,6,-100,-96,11,"1","true",7.001,0,0,442,-96,-96,11,6,23
"443","7",-100,-98,6,-100,-98,11,"1","false",1.848,0,0,443,-98,-98,11,6,23
"444","7",-100,-104,6,-100,-104,11,"1","true",1.85,0,0,444,-104,-104,11,6,23
"445","7",-100,-99,6,-100,-99,11,"1","true",0.99,0,0,445,-99,-99,11,6,23
"446","7",-100,-96,6,-100,-96,11,"1","true",0.753,0,0,446,-96,-96,11,6,23
"447","7",-100,-99,6,-100,-99,11,"1","true",0.62,0,0,447,-99,-99,11,6,23
"448","7",-100,-100,6,-100,-100,11,"1","false",1.329,0,0,448,-100,-100,11,6,23
"449","7",-100,-101,6,-100,-101,11,"1","true",1.202,0,0,449,-101,-101,11,6,23
"450","7",-100,-97,6,-100,-97,11,"1","true",13.983,0,0,450,-97,-97,11,6,23
"451","7",-100,-96,6,-100,-96,11,"1","false",4.902,0,0,451,-96,-96,11,6,23
"452","7",-100,-102,6,-100,-102,11,"1","false",3.723,0,0,452,-102,-102,11,6,23
"453","7",-100,-98,6,-100,-98,11,"1","true",14.279,0,0,453,-98,-98,11,6,23
"454","7",-100,-96,6,-100,-96,11,"1","true",0.821,0,0,454,-96,-96,11,6,23
"455","7",-100,-104,6,-100,-104,11,"1","true",23.753,0,0,455,-104,-104,11,6,23
"456","7",-100,-101,6,-100,-101,11,"1","false",1.904,0,0,456,-101,-101,11,6,23
"457","7",-100,-96,6,-100,-96,11,"1","false",0.748,0,0,457,-96,-96,11,6,23
"458","7",-100,-97,6,-100,-97,11,"1","false",0.677,0,0,458,-97,-97,11,6,23
"459","7",-100,-96,6,-100,-96,11,"1","true",1.577,0,0,459,-96,-96,11,6,23
"460","7",-100,-99,6,-100,-99,11,"1","true",0.84,0,0,460,-99,-99,11,6,23
"461","7",-100,-104,6,-100,-104,11,"1","true",1.029,0,0,461,-104,-104,11,6,23
"462","7",-100,-98,6,-100,-98,11,"1","true",7.404,0,0,462,-98,-98,11,6,23
"463","7",-100,-100,6,-100,-100,11,"1","true",1.127,0,0,463,-100,-100,11,6,23
"464","7",-100,-103,6,-100,-103,11,"1","true",0.715,0,0,464,-103,-103,11,6,23
"465","7",-100,-100,6,-100,-100,11,"1","false",1.493,0,0,465,-100,-100,11,6,23
"466","7",-100,-104,6,-100,-104,11,"1","true",1.193,0,0,466,-104,-104,11,6,23
"467","7",-100,-102,6,-100,-102,11,"1","true",1.015,0,0,467,-102,-102,11,6,23
"468","7",-100,-98,6,-100,-98,11,"1","false",4.047,0,0,468,-98,-98,11,6,23
"469","7",-100,-104,6,-100,-104,11,"1","false",0.748,0,0,469,-104,-104,11,6,23
"470","7",-100,-99,6,-100,-99,11,"1","true",1.791,0,0,470,-99,-99,11,6,23
"471","7",-100,-105,6,-100,-105,11,"1","false",1.717,0,0,471,-105,-105,11,6,23
"472","7",-100,-97,6,-100,-97,11,"1","false",3.641,0,0,472,-97,-97,11,6,23
"473","7",-100,-100,6,-100,-100,11,"1","true",1.547,0,0,473,-100,-100,11,6,23
"474","7",-100,-102,6,-100,-102,11,"1","true",1.058,0,0,474,-102,-102,11,6,23
"475","7",-100,-96,6,-100,-96,11,"1","true",0.684,0,0,475,-96,-96,11,6,23
"476","7",-100,-97,6,-100,-97,11,"1","false",1.336,0,0,476,-97,-97,11,6,23
"477","7",-100,-99,6,-100,-99,11,"1","true",2.481,0,0,477,-99,-99,11,6,23
"478","7",-100,-96,6,-100,-96,11,"1","true",1.436,0,0,478,-96,-96,11,6,23
"479","7",-100,-99,6,-100,-99,11,"1","true",0.758,0,0,479,-99,-99,11,6,23
"480","7",-100,-105,6,-100,-105,11,"1","false",1.086,0,0,480,-105,-105,11,6,23
"481","7",-100,-105,6,-100,-105,11,"1","true",2.684,0,0,481,-105,-105,11,6,23
"482","7",-100,-99,6,-100,-99,11,"1","false",1.142,0,0,482,-99,-99,11,6,23
"483","7",-100,-102,6,-100,-102,11,"1","true",1.458,0,0,483,-102,-102,11,6,23
"484","7",-100,-100,6,-100,-100,11,"1","false",1.195,0,0,484,-100,-100,11,6,23
"485","7",-100,-102,6,-100,-102,11,"1","true",1.266,0,0,485,-102,-102,11,6,23
"486","7",-100,-100,6,-100,-100,11,"1","false",1.257,0,0,486,-100,-100,11,6,23
"487","7",-100,-100,6,-100,-100,11,"1","false",0.937,0,0,487,-100,-100,11,6,23
"488","7",-100,-101,6,-100,-101,11,"1","true",2.218,0,0,488,-101,-101,11,6,23
"489","7",-100,-100,6,-100,-100,11,"1","false",1.956,0,0,489,-100,-100,11,6,23
"490","7",-100,-96,6,-100,-96,11,"1","true",1.402,0,0,490,-96,-96,11,6,23
"491","7",-100,-96,6,-100,-96,11,"1","false",29.575,0,0,491,-96,-96,11,6,23
"492","7",-100,-99,6,-100,-99,11,"1","false",1.419,0,0,492,-99,-99,11,6,23
"493","7",-100,-96,6,-100,-96,11,"1","false",1.124,0,0,493,-96,-96,11,6,23
"494","7",-100,-99,6,-100,-99,11,"1","false",0.645,0,0,494,-99,-99,11,6,23
"495","7",-100,-95,6,-100,-95,11,"1","false",1.563,0,0,495,-95,-95,11,6,23
"496","7",-100,-104,6,-100,-104,11,"1","false",1.002,0,0,496,-104,-104,11,6,23
"497","7",-100,-105,6,-100,-105,11,"1","false",1.8,0,0,497,-105,-105,11,6,23
"498","7",-100,-101,6,-100,-101,11,"1","true",2.462,0,0,498,-101,-101,11,6,23
"499","7",-100,-102,6,-100,-102,11,"1","false",1.183,0,0,499,-102,-102,11,6,23
"500","7",-100,-97,6,-100,-97,11,"1","true",1.303,0,0,500,-97,-97,11,6,23
"501","7",-100,-100,6,-100,-100,11,"1","false",1.045,0,0,501,-100,-100,11,6,23
"502","7",-100,-104,6,-100,-104,11,"1","false",0.886,0,0,502,-104,-104,11,6,23
"503","7",-100,-104,6,-100,-104,11,"1","true",1.388,0,0,503,-104,-104,11,6,23
"504","7",-100,-97,6,-100,-97,11,"1","false",6.034,0,0,504,-97,-97,11,6,23
"505","7",-100,-101,6,-100,-101,11,"1","true",1.304,0,0,505,-101,-101,11,6,23
"506","7",-100,-96,6,-100,-96,11,"1","true",66.783,0,0,506,-96,-96,11,6,23
"507","7",-100,-103,6,-100,-103,11,"1","false",1.028,0,0,507,-103,-103,11,6,23
"508","7",-100,-103,6,-100,-103,11,"1","false",0.656,0,0,508,-103,-103,11,6,23
"509","7",-100,-101,6,-100,-101,11,"1","true",1.164,0,0,509,-101,-101,11,6,23
"510","7",-100,-97,6,-100,-97,11,"1","true",1.648,0,0,510,-97,-97,11,6,23
"511","7",-100,-101,6,-100,-101,11,"1","true",0.898,0,0,511,-101,-101,11,6,23
"512","7",-100,-96,6,-100,-96,11,"1","true",0.926,0,0,512,-96,-96,11,6,23
"513","7",-100,-101,6,-100,-101,11,"1","false",1.624,0,0,513,-101,-101,11,6,23
"514","7",-100,-101,6,-100,-101,11,"1","true",2.766,0,0,514,-101,-101,11,6,23
"515","7",-100,-104,6,-100,-104,11,"1","true",0.687,0,0,515,-104,-104,11,6,23
"516","7",-100,-98,6,-100,-98,11,"1","true",0.588,0,0,516,-98,-98,11,6,23
"517","7",-100,-96,6,-100,-96,11,"1","true",1.113,0,0,517,-96,-96,11,6,23
"518","7",-100,-96,6,-100,-96,11,"1","false",1.333,0,0,518,-96,-96,11,6,23
"519","7",-100,-105,6,-100,-105,11,"1","false",0.839,0,0,519,-105,-105,11,6,23
"520","7",-100,-104,6,-100,-104,11,"1","true",1.773,0,0,520,-104,-104,11,6,23
"521","7",-100,-104,6,-100,-104,11,"1","true",0.556,0,0,521,-104,-104,11,6,23
"522","7",-100,-100,6,-100,-100,11,"1","true",0.465,0,0,522,-100,-100,11,6,23
"523","7",-100,-105,6,-100,-105,11,"1","true",0.417,0,0,523,-105,-105,11,6,23
"524","7",-100,-102,6,-100,-102,11,"1","true",0.451,0,0,524,-102,-102,11,6,23
"525","7",-100,-98,6,-100,-98,11,"1","true",0.371,0,0,525,-98,-98,11,6,23
"526","7",-100,-102,6,-100,-102,11,"2","false",0.282,0,1,526,-102,-102,11,6,23
"527","3",400,400,6,435.44,436,11,"1","false",3.773,0,0,1,436,400,11,6,79
"528","6",-100,-102,6,-86.08,-88,1,"2","false",3.086,1,0,2,-102,-88,6,1,79
"529","5",-200,-200,6,-226.48,-227,11,"1","false",3.505,0,0,3,-227,-200,11,6,79
"530","5",-200,-196,6,-213.24,-209,11,"1","true",3.088,0,0,4,-209,-196,11,6,79
"531","7",-100,-95,6,-124.02,-118,11,"1","true",2.776,0,0,5,-118,-95,11,6,79
"532","2",400,414,6,331.88,344,1,"2","false",3.566,1,0,6,414,344,6,1,79
"533","2",400,393,6,291.88,287,1,"2","true",4.435,1,0,7,393,287,6,1,79
"534","6",-100,-98,6,-93.04,-91,1,"1","false",3.884,1,1,8,-98,-91,6,1,79
"535","3",400,403,6,475.44,479,11,"1","false",7.699,0,0,9,479,403,11,6,79
"536","1",200,192,6,203.15,195,11,"2","true",3.462,0,1,10,195,192,11,6,79
"537","7",-100,-98,6,-112.01,-110,11,"1","false",7.563,0,0,11,-110,-98,11,6,79
"538","3",400,417,6,515.44,538,11,"1","true",6.149,0,0,12,538,417,11,6,79
"539","3",400,397,6,555.44,551,11,"1","false",5.549,0,0,13,551,397,11,6,79
"540","7",-100,-98,6,-106.01,-104,11,"1","true",4.049,0,0,14,-104,-98,11,6,79
"541","0",200,201,6,168.69,169,1,"1","true",10.914,1,1,15,201,169,6,1,79
"542","3",400,390,6,595.44,580,11,"1","false",2.964,0,0,16,580,390,11,6,79
"543","5",-200,-205,6,-206.62,-212,11,"1","true",6.288,0,0,17,-212,-205,11,6,79
"544","2",400,401,6,251.88,252,1,"2","false",6.469,1,0,18,401,252,6,1,79
"545","4",-200,-197,6,-187.39,-185,1,"2","false",5.116,1,0,19,-197,-185,6,1,79
"546","0",200,201,6,184.35,185,1,"2","false",3.467,1,0,20,201,185,6,1,79
"547","0",200,196,6,144.35,141,1,"2","true",2.937,1,0,21,196,141,6,1,79
"548","3",400,404,6,635.44,642,11,"1","false",7.596,0,0,22,642,404,11,6,79
"549","4",-200,-202,6,-193.7,-195,1,"2","true",2.114,1,0,23,-202,-195,6,1,79
"550","1",200,193,6,201.57,195,11,"1","true",7.33,0,0,24,195,193,11,6,79
"551","6",-100,-103,6,-53.04,-54,1,"2","false",1.484,1,0,25,-103,-54,6,1,79
"552","4",-200,-210,6,-196.85,-207,1,"1","true",4.669,1,1,26,-210,-207,6,1,79
"553","1",200,198,6,241.57,239,11,"1","true",6.45,0,0,27,239,198,11,6,79
"554","6",-100,-98,6,-81.04,-79,1,"2","false",5.552,1,0,28,-98,-79,6,1,79
"555","7",-100,-98,6,-103,-101,11,"2","false",8.74,0,1,29,-101,-98,11,6,79
"556","4",-200,-192,6,-168.85,-162,1,"2","true",4.923,1,0,30,-192,-162,6,1,79
"557","7",-100,-101,6,-122.6,-124,11,"1","true",3.729,0,0,31,-124,-101,11,6,79
"558","6",-100,-96,6,-90.52,-87,1,"1","false",8.867,1,1,32,-96,-87,6,1,79
"559","0",200,195,6,104.35,102,1,"1","true",31.016,1,1,33,195,102,6,1,79
"560","2",400,419,6,211.88,222,1,"1","false",3.603,1,1,34,419,222,6,1,79
"561","5",-200,-196,6,-203.31,-199,11,"1","true",21.835,0,0,35,-199,-196,11,6,79
"562","3",400,412,6,675.44,696,11,"2","true",174.588,0,1,36,696,412,11,6,79
"563","1",200,202,6,281.57,284,11,"1","true",2.956,0,0,37,284,202,11,6,79
"564","5",-200,-207,6,-201.65,-209,11,"1","true",1.8,0,0,38,-209,-207,11,6,79
"565","4",-200,-209,6,-188.45,-197,1,"2","false",1.959,1,0,39,-209,-197,6,1,79
"566","2",400,390,6,239.88,234,1,"2","true",4.419,1,0,40,390,234,6,1,79
"567","6",-100,-96,6,-76.8,-74,1,"2","false",2.16,1,0,41,-96,-74,6,1,79
"568","4",-200,-194,6,-194.22,-188,1,"2","true",7.548,1,0,42,-194,-188,6,1,79
"569","3",400,396,6,647.44,641,11,"2","false",254.842,0,1,43,641,396,11,6,79
"570","3",400,399,6,619.44,618,11,"1","true",1.767,0,0,44,618,399,11,6,79
"571","0",200,196,6,132.35,130,1,"2","false",1.945,1,0,45,196,130,6,1,79
"572","3",400,413,6,639.04,660,11,"2","false",2.518,0,1,46,660,413,11,6,79
"573","2",400,414,6,220.28,228,1,"2","true",2.2,1,0,47,414,228,6,1,79
"574","1",200,193,6,321.57,311,11,"1","true",3.349,0,0,48,311,193,11,6,79
"575","2",400,420,6,200.68,211,1,"2","false",1.619,1,0,49,420,211,6,1,79
"576","6",-100,-99,6,-86.41,-85,1,"1","true",4.016,1,1,50,-99,-85,6,1,79
"577","6",-100,-99,6,-79.68,-79,1,"2","false",5.818,1,0,51,-99,-79,6,1,79
"578","6",-100,-103,6,-84.39,-87,1,"2","false",2.005,1,0,52,-103,-87,6,1,79
"579","4",-200,-193,6,-197.11,-190,1,"1","true",1.95,1,1,53,-193,-190,6,1,79
"580","5",-200,-192,6,-200.83,-192,11,"2","true",2.349,0,1,54,-192,-192,11,6,79
"581","2",400,418,6,181.08,189,1,"1","true",25.795,1,1,55,418,189,6,1,79
"582","0",200,198,6,112.75,112,1,"1","false",5.417,1,1,56,198,112,6,1,79
"583","4",-200,-199,6,-190.39,-189,1,"1","false",7.899,1,1,57,-199,-189,6,1,79
"584","1",200,200,6,361.57,362,11,"1","false",2.752,0,0,58,362,200,11,6,79
"585","2",400,390,6,194.8,190,1,"2","true",2.168,1,0,59,390,190,6,1,79
"586","3",400,410,6,625.32,641,11,"1","true",6.549,0,0,60,641,410,11,6,79
"587","2",400,414,6,185.19,192,1,"2","false",2.161,1,0,61,414,192,6,1,79
"588","7",-100,-101,6,-108.88,-110,11,"1","false",3.9,0,0,62,-110,-101,11,6,79
"589","6",-100,-105,6,-89.09,-93,1,"1","true",2.927,1,1,63,-105,-93,6,1,79
"590","5",-200,-206,6,-210.43,-217,11,"2","false",6.251,0,1,64,-217,-206,11,6,79
"591","2",400,409,6,175.59,179,1,"1","true",14.104,1,1,65,409,179,6,1,79
"592","7",-100,-98,6,-104.44,-103,11,"2","false",3.635,0,1,66,-103,-98,11,6,79
"593","7",-100,-104,6,-111.16,-115,11,"2","true",2.432,0,1,67,-115,-104,11,6,79
"594","0",200,200,6,126.47,126,1,"2","false",3.137,1,0,68,200,126,6,1,79
"595","1",200,200,6,401.57,401,11,"1","true",9.213,0,0,69,401,200,11,6,79
"596","1",200,208,6,441.57,459,11,"2","false",2.521,0,1,70,459,208,11,6,79
"597","4",-200,-192,6,-183.67,-177,1,"2","false",13.565,1,0,71,-192,-177,6,1,79
"598","0",200,203,6,116.86,119,1,"2","true",10.219,1,0,72,203,119,6,1,79
"599","4",-200,-197,6,-188.37,-185,1,"1","true",10.134,1,1,73,-197,-185,6,1,79
"600","7",-100,-97,6,-117.89,-115,11,"2","false",4.216,0,1,74,-115,-97,11,6,79
"601","5",-200,-192,6,-220.04,-211,11,"2","true",3.831,0,1,75,-211,-192,11,6,79
"602","2",400,397,6,182.31,181,1,"1","false",3.965,1,1,76,397,181,6,1,79
"603","2",400,390,6,189.04,184,1,"1","true",50.084,1,1,77,390,184,6,1,79
"604","2",400,418,6,195.76,204,1,"1","true",2.148,1,1,78,418,204,6,1,79
"605","0",200,192,6,107.26,103,1,"2","true",2.452,1,0,79,192,103,6,1,79
"606","2",400,415,6,202.48,210,1,"2","true",3.647,1,0,80,415,210,6,1,79
"607","3",400,412,6,634.92,654,11,"1","true",2.185,0,0,81,654,412,11,6,79
"608","7",-100,-104,6,-124.61,-129,11,"2","false",3.304,0,1,82,-129,-104,11,6,79
"609","1",200,202,6,413.57,417,11,"1","true",2.202,0,0,83,417,202,11,6,79
"610","5",-200,-204,6,-229.64,-234,11,"2","true",4.159,0,1,84,-234,-204,11,6,79
"611","5",-200,-203,6,-239.24,-242,11,"2","true",4.394,0,1,85,-242,-203,11,6,79
"612","5",-200,-206,6,-248.85,-256,11,"1","false",2.234,0,0,86,-256,-206,11,6,79
"613","0",200,207,6,97.65,101,1,"2","true",2.463,1,0,87,207,101,6,1,79
"614","3",400,419,6,644.53,675,11,"2","false",71.43,0,1,88,675,419,11,6,79
"615","2",400,412,6,197.78,204,1,"2","false",2.481,1,0,89,412,204,6,1,79
"616","7",-100,-99,6,-131.33,-130,11,"1","true",1.337,0,0,90,-130,-99,11,6,79
"617","7",-100,-101,6,-126.63,-128,11,"1","true",9.451,0,0,91,-128,-101,11,6,79
"618","0",200,203,6,88.05,89,1,"1","true",8.932,1,1,92,203,89,6,1,79
"619","2",400,413,6,193.07,199,1,"1","true",3.835,1,1,93,413,199,6,1,79
"620","5",-200,-198,6,-242.12,-239,11,"1","false",2.319,0,0,94,-239,-198,11,6,79
"621","7",-100,-102,6,-121.92,-124,11,"1","true",3.619,0,0,95,-124,-102,11,6,79
"622","3",400,400,6,637.8,637,11,"1","false",2.328,0,0,96,637,400,11,6,79
"623","7",-100,-101,6,-117.21,-119,11,"1","false",3.197,0,0,97,-119,-101,11,6,79
"624","1",200,194,6,433.17,421,11,"1","false",3.247,0,0,98,421,194,11,6,79
"625","7",-100,-100,6,-112.51,-113,11,"1","false",2.497,0,0,99,-113,-100,11,6,79
"626","5",-200,-206,6,-235.4,-242,11,"1","true",7.819,0,0,100,-242,-206,11,6,79
"627","5",-200,-192,6,-228.68,-220,11,"1","false",2.33,0,0,101,-220,-192,11,6,79
"628","3",400,382,6,642.51,613,11,"1","true",23.142,0,0,102,613,382,11,6,79
"629","1",200,208,6,452.77,470,11,"1","true",3.084,0,0,103,470,208,11,6,79
"630","5",-200,-195,6,-221.96,-216,11,"1","false",2.915,0,0,104,-216,-195,11,6,79
"631","1",200,207,6,472.37,490,11,"1","false",1.516,0,0,105,490,207,11,6,79
"632","0",200,206,6,94.77,98,1,"2","false",1.866,1,0,106,206,98,6,1,79
"633","5",-200,-206,6,-215.23,-221,11,"1","true",522.304,0,0,107,-221,-206,11,6,79
"634","1",200,192,6,491.97,472,11,"2","false",11.199,0,1,108,472,192,11,6,79
"635","0",200,202,6,90.07,91,1,"2","false",1.868,1,0,109,202,91,6,1,79
"636","5",-200,-194,6,-208.51,-202,11,"2","false",3.314,0,1,110,-202,-194,11,6,79
"637","7",-100,-96,6,-107.8,-103,11,"1","false",2.476,0,0,111,-103,-96,11,6,79
"638","1",200,191,6,478.25,457,11,"2","false",4.599,0,1,112,457,191,11,6,79
"639","1",200,202,6,464.53,469,11,"1","false",68.262,0,0,113,469,202,11,6,79
"640","5",-200,-207,6,-213.22,-221,11,"1","true",4.281,0,0,114,-221,-207,11,6,79
"641","7",-100,-103,6,-103.1,-106,11,"2","false",3.016,0,1,115,-106,-103,11,6,79
"642","3",400,406,6,647.21,657,11,"1","false",2.414,0,0,116,657,406,11,6,79
"643","0",200,198,6,85.36,84,1,"1","false",3.828,1,1,117,198,84,6,1,79
"644","1",200,210,6,474.14,498,11,"1","false",2.133,0,0,118,498,210,11,6,79
"645","3",400,395,6,651.92,644,11,"1","true",4.487,0,0,119,644,395,11,6,79
"646","1",200,208,6,483.74,504,11,"2","true",8.78,0,1,120,504,208,11,6,79
"647","1",200,209,6,477.02,499,11,"2","false",2.327,0,1,121,499,209,11,6,79
"648","3",400,394,6,656.63,646,11,"1","false",3.657,0,0,122,646,394,11,6,79
"649","3",400,398,6,661.33,657,11,"1","true",2.139,0,0,123,657,398,11,6,79
"650","1",200,204,6,470.3,479,11,"1","true",2.756,0,0,124,479,204,11,6,79
"651","3",400,420,6,666.04,699,11,"2","true",1.742,0,1,125,699,420,11,6,79
"652","1",200,200,6,475,476,11,"1","false",2.32,0,0,126,476,200,11,6,79
"653","1",200,207,6,479.71,497,11,"1","true",2.116,0,0,127,497,207,11,6,79
"654","1",200,209,6,484.41,506,11,"2","true",22.286,0,1,128,506,209,11,6,79
"655","0",200,209,6,165.22,172,1,"2","true",6.674,1,0,1,209,172,6,1,70
"656","0",200,196,6,125.22,123,1,"2","false",5.256,1,0,2,196,123,6,1,70
"657","7",-100,-102,6,-118.83,-121,11,"2","false",6.197,0,1,3,-121,-102,11,6,70
"658","3",400,416,6,400.51,416,11,"1","true",6.031,0,0,4,416,416,11,6,70
"659","5",-200,-209,6,-252.7,-264,11,"2","true",5.575,0,1,5,-264,-209,11,6,70
"660","4",-200,-193,6,-145.1,-140,1,"1","true",3.463,1,1,6,-193,-140,6,1,70
"661","0",200,192,6,85.22,82,1,"1","true",4.835,1,1,7,192,82,6,1,70
"662","7",-100,-105,6,-158.83,-166,11,"2","true",5.073,0,1,8,-166,-105,11,6,70
"663","2",400,395,6,291.11,287,1,"2","true",7.709,1,0,9,395,287,6,1,70
"664","3",400,390,6,440.51,429,11,"2","false",3.685,0,1,10,429,390,11,6,70
"665","3",400,401,6,400.51,402,11,"1","false",5.199,0,0,11,402,401,11,6,70
"666","0",200,202,6,113.22,114,1,"2","false",6.443,1,0,12,202,114,6,1,70
"667","4",-200,-194,6,-105.1,-102,1,"1","false",3.482,1,1,13,-194,-102,6,1,70
"668","3",400,397,6,428.51,425,11,"1","false",4.901,0,0,14,425,397,11,6,70
"669","0",200,191,6,93.62,89,1,"1","false",5.152,1,1,15,191,89,6,1,70
"670","0",200,192,6,107.34,103,1,"2","false",4.118,1,0,16,192,103,6,1,70
"671","1",200,200,6,217.09,217,11,"1","false",3.513,0,0,17,217,200,11,6,70
"672","5",-200,-203,6,-292.7,-298,11,"2","true",3.857,0,1,18,-298,-203,11,6,70
"673","6",-100,-97,6,-70.71,-68,1,"1","false",3.482,1,1,19,-97,-68,6,1,70
"674","2",400,401,6,251.11,252,1,"1","true",3.805,1,1,20,401,252,6,1,70
"675","7",-100,-101,6,-198.83,-201,11,"2","true",2.64,0,1,21,-201,-101,11,6,70
"676","1",200,204,6,257.09,262,11,"1","false",2.405,0,0,22,262,204,11,6,70
"677","2",400,414,6,291.11,301,1,"1","true",8.408,1,1,23,414,301,6,1,70
"678","6",-100,-99,6,-30.71,-30,1,"1","false",2.234,1,1,24,-99,-30,6,1,70
"679","5",-200,-201,6,-332.7,-334,11,"2","false",4.575,0,1,25,-334,-201,11,6,70
"680","0",200,192,6,97.73,94,1,"1","true",3.918,1,1,26,192,94,6,1,70
"681","0",200,209,6,104.46,109,1,"1","false",2.015,1,1,27,209,109,6,1,70
"682","4",-200,-202,6,-65.1,-66,1,"2","true",6.495,1,0,28,-202,-66,6,1,70
"683","0",200,209,6,111.18,116,1,"1","false",4.214,1,1,29,209,116,6,1,70
"684","6",-100,-105,6,9.29,10,1,"2","true",5.26,1,0,30,-105,10,6,1,70
"685","4",-200,-198,6,-93.1,-92,1,"2","false",3.126,1,0,31,-198,-92,6,1,70
"686","3",400,394,6,456.51,449,11,"2","false",4.679,0,1,32,449,394,11,6,70
"687","3",400,401,6,436.91,438,11,"1","false",2.764,0,0,33,438,401,11,6,70
"688","0",200,203,6,117.9,119,1,"1","false",3.2,1,1,34,203,119,6,1,70
"689","0",200,193,6,124.63,120,1,"2","true",4.84,1,0,35,193,120,6,1,70
"690","1",200,203,6,297.09,302,11,"2","false",13.674,0,1,36,302,203,11,6,70
"691","5",-200,-200,6,-372.7,-372,11,"1","false",2.856,0,0,37,-372,-200,11,6,70
"692","0",200,207,6,119.92,124,1,"2","false",4.632,1,0,38,207,124,6,1,70
"693","1",200,201,6,269.09,271,11,"1","true",1.953,0,0,39,271,201,11,6,70
"694","6",-100,-98,6,-18.71,-18,1,"2","false",4.403,1,0,40,-98,-18,6,1,70
"695","5",-200,-200,6,-344.7,-344,11,"1","false",2.912,0,0,41,-344,-200,11,6,70
"696","3",400,399,6,450.63,450,11,"1","false",3.83,0,0,42,450,399,11,6,70
"697","7",-100,-99,6,-238.83,-236,11,"1","false",1.696,0,0,43,-236,-99,11,6,70
"698","2",400,415,6,331.11,344,1,"2","false",3.408,1,0,44,415,344,6,1,70
"699","4",-200,-208,6,-121.1,-126,1,"1","true",3.009,1,1,45,-208,-126,6,1,70
"700","7",-100,-101,6,-210.83,-213,11,"2","false",5.213,0,1,46,-213,-101,11,6,70
"701","3",400,398,6,464.35,462,11,"1","false",4.04,0,0,47,462,398,11,6,70
"702","7",-100,-97,6,-230.43,-224,11,"1","false",13.139,0,0,48,-224,-97,11,6,70
"703","7",-100,-96,6,-216.71,-208,11,"1","true",2.484,0,0,49,-208,-96,11,6,70
"704","0",200,191,6,115.21,110,1,"2","false",2.811,1,0,50,191,110,6,1,70
"705","4",-200,-200,6,-101.5,-101,1,"2","false",2.199,1,0,51,-200,-101,6,1,70
"706","6",-100,-102,6,-46.71,-47,1,"2","true",1.36,1,0,52,-102,-47,6,1,70
"707","2",400,418,6,303.11,317,1,"2","true",2.687,1,0,53,418,317,6,1,70
"708","3",400,395,6,478.07,472,11,"1","true",1.761,0,0,54,472,395,11,6,70
"709","5",-200,-201,6,-316.7,-318,11,"1","true",3.525,0,0,55,-318,-201,11,6,70
"710","6",-100,-101,6,-74.71,-76,1,"1","true",3.334,1,1,56,-101,-76,6,1,70
"711","6",-100,-96,6,-55.11,-53,1,"1","true",2.764,1,1,57,-96,-53,6,1,70
"712","5",-200,-201,6,-288.7,-291,11,"1","true",5.023,0,0,58,-291,-201,11,6,70
"713","6",-100,-98,6,-35.51,-35,1,"1","true",2.312,1,1,59,-98,-35,6,1,70
"714","2",400,393,6,275.11,271,1,"2","true",5.21,1,0,60,393,271,6,1,70
"715","2",400,408,6,247.11,252,1,"1","true",3.638,1,1,61,408,252,6,1,70
"716","3",400,395,6,491.79,485,11,"1","false",4.479,0,0,62,485,395,11,6,70
"717","5",-200,-209,6,-260.7,-273,11,"2","true",28.654,0,1,63,-273,-209,11,6,70
"718","1",200,190,6,288.69,275,11,"1","false",2.937,0,0,64,275,190,11,6,70
"719","7",-100,-103,6,-202.99,-209,11,"1","true",4.918,0,0,65,-209,-103,11,6,70
"720","6",-100,-99,6,-15.91,-16,1,"2","true",2.001,1,0,66,-99,-16,6,1,70
"721","3",400,418,6,505.51,528,11,"1","true",3.826,0,0,67,528,418,11,6,70
"722","4",-200,-208,6,-115.22,-120,1,"2","true",4.167,1,0,68,-208,-120,6,1,70
"723","2",400,409,6,266.71,273,1,"1","true",4.745,1,1,69,409,273,6,1,70
"724","5",-200,-204,6,-280.3,-286,11,"2","true",4.684,0,1,70,-286,-204,11,6,70
"725","5",-200,-194,6,-299.9,-291,11,"1","false",5.558,0,0,71,-291,-194,11,6,70
"726","7",-100,-98,6,-189.27,-186,11,"1","false",1.201,0,0,72,-186,-98,11,6,70
"727","1",200,204,6,308.29,314,11,"2","true",3.202,0,1,73,314,204,11,6,70
"728","1",200,209,6,294.57,309,11,"2","false",2.605,0,1,74,309,209,11,6,70
"729","0",200,194,6,110.51,107,1,"2","true",2.127,1,0,75,194,107,6,1,70
"730","3",400,391,6,519.23,507,11,"2","true",4.367,0,1,76,507,391,11,6,70
"731","3",400,397,6,509.63,506,11,"2","false",2.824,0,1,77,506,397,11,6,70
"732","0",200,200,6,105.8,106,1,"1","false",1.868,1,1,78,200,106,6,1,70
"733","3",400,385,6,500.02,481,11,"1","false",2.312,0,0,79,481,385,11,6,70
"734","6",-100,-102,6,-29.63,-30,1,"2","true",1.564,1,0,80,-102,-30,6,1,70
"735","7",-100,-104,6,-175.55,-183,11,"2","false",3.994,0,1,81,-183,-104,11,6,70
"736","1",200,196,6,280.85,275,11,"1","false",4.474,0,0,82,275,196,11,6,70
"737","7",-100,-102,6,-185.15,-188,11,"1","false",6.432,0,0,83,-188,-102,11,6,70
"738","4",-200,-190,6,-128.94,-123,1,"2","true",1.611,1,0,84,-190,-123,6,1,70
"739","4",-200,-200,6,-142.66,-143,1,"2","false",1.469,1,0,85,-200,-143,6,1,70
"740","1",200,209,6,290.46,303,11,"2","false",2.141,0,1,86,303,209,11,6,70
"741","5",-200,-209,6,-286.18,-299,11,"2","true",1.86,0,1,87,-299,-209,11,6,70
"742","7",-100,-99,6,-178.43,-177,11,"1","true",1.964,0,0,88,-177,-99,11,6,70
"743","7",-100,-97,6,-171.71,-167,11,"1","true",1.204,0,0,89,-167,-97,11,6,70
"744","5",-200,-191,6,-295.78,-283,11,"1","false",4.339,0,0,90,-283,-191,11,6,70
"745","6",-100,-98,6,-43.35,-43,1,"2","true",1.014,1,0,91,-98,-43,6,1,70
"746","7",-100,-99,6,-164.98,-163,11,"1","false",2.026,0,0,92,-163,-99,11,6,70
"747","1",200,201,6,283.73,285,11,"1","false",1.712,0,0,93,285,201,11,6,70
"748","5",-200,-209,6,-289.06,-301,11,"1","true",1.971,0,0,94,-301,-209,11,6,70
"749","7",-100,-105,6,-158.26,-166,11,"1","false",1.766,0,0,95,-166,-105,11,6,70
"750","6",-100,-99,6,-57.07,-57,1,"2","false",1.544,1,0,96,-99,-57,6,1,70
"751","2",400,387,6,286.31,277,1,"2","true",2,1,0,97,387,277,6,1,70
"752","5",-200,-205,6,-282.34,-289,11,"2","false",4.798,0,1,98,-289,-205,11,6,70
"753","6",-100,-102,6,-70.79,-72,1,"2","true",1.322,1,0,99,-102,-72,6,1,70
"754","5",-200,-206,6,-287.05,-296,11,"2","true",2.33,0,1,100,-296,-206,11,6,70
"755","3",400,412,6,506.75,522,11,"1","false",1.977,0,0,101,522,412,11,6,70
"756","3",400,414,6,513.47,531,11,"1","true",14.223,0,0,102,531,414,11,6,70
"757","7",-100,-105,6,-151.54,-159,11,"1","true",2.032,0,0,103,-159,-105,11,6,70
"758","2",400,406,6,272.59,277,1,"1","false",1.591,1,1,104,406,277,6,1,70
"759","2",400,388,6,282.19,274,1,"2","true",1.595,1,0,105,388,274,6,1,70
"760","4",-200,-208,6,-156.38,-163,1,"2","false",1.825,1,0,106,-208,-163,6,1,70
"761","7",-100,-99,6,-144.81,-143,11,"1","true",1.124,0,0,107,-143,-99,11,6,70
"762","7",-100,-96,6,-138.09,-133,11,"1","false",1.221,0,0,108,-133,-96,11,6,70
"763","7",-100,-97,6,-131.37,-127,11,"1","false",0.971,0,0,109,-127,-97,11,6,70
"764","3",400,401,6,520.19,522,11,"2","true",3.528,0,1,110,522,401,11,6,70
"765","7",-100,-99,6,-124.65,-124,11,"1","true",1.716,0,0,111,-124,-99,11,6,70
"766","5",-200,-198,6,-291.75,-289,11,"1","false",2.438,0,0,112,-289,-198,11,6,70
"767","3",400,416,6,515.49,536,11,"1","true",4.106,0,0,113,536,416,11,6,70
"768","6",-100,-96,6,-84.51,-81,1,"1","false",2.371,1,1,114,-96,-81,6,1,70
"769","7",-100,-101,6,-117.92,-119,11,"1","false",2.11,0,0,115,-119,-101,11,6,70
"770","6",-100,-100,6,-74.91,-75,1,"2","false",1.669,1,0,116,-100,-75,6,1,70
"771","1",200,202,6,288.44,292,11,"1","true",1.841,0,0,117,292,202,11,6,70
"772","1",200,191,6,293.15,280,11,"1","false",3.459,0,0,118,280,191,11,6,70
"773","4",-200,-204,6,-170.1,-174,1,"2","true",1.124,1,0,119,-204,-174,6,1,70
"774","2",400,383,6,275.47,264,1,"2","true",1.999,1,0,120,383,264,6,1,70
"775","6",-100,-102,6,-81.63,-83,1,"2","false",1.169,1,0,121,-102,-83,6,1,70
"776","7",-100,-96,6,-111.2,-107,11,"2","true",1.703,0,1,122,-107,-96,11,6,70
"777","4",-200,-195,6,-183.82,-179,1,"2","false",1.718,1,0,123,-195,-179,6,1,70
"778","4",-200,-207,6,-197.54,-204,1,"2","true",7.089,1,0,124,-207,-204,6,1,70
"779","7",-100,-98,6,-115.91,-114,11,"1","true",1.109,0,0,125,-114,-98,11,6,70
"780","4",-200,-191,6,-198.77,-190,1,"1","false",3.057,1,1,126,-191,-190,6,1,70
"781","6",-100,-100,6,-88.35,-88,1,"1","true",4.526,1,1,127,-100,-88,6,1,70
"782","4",-200,-198,6,-192.05,-190,1,"1","false",3.126,1,1,128,-198,-190,6,1,70
"783","1",200,196,6,297.85,292,11,"2","true",3.513,0,1,129,292,196,11,6,70
"784","2",400,415,6,268.75,279,1,"1","true",1.762,1,1,130,415,279,6,1,70
"785","4",-200,-202,6,-185.32,-187,1,"1","false",2.935,1,1,131,-202,-187,6,1,70
"786","2",400,385,6,273.45,263,1,"2","false",21.637,1,0,132,385,263,6,1,70
"787","6",-100,-100,6,-83.65,-84,1,"1","true",34.36,1,1,133,-100,-84,6,1,70
"788","4",-200,-192,6,-178.6,-172,1,"1","true",2.187,1,1,134,-192,-172,6,1,70
"789","6",-100,-96,6,-78.94,-76,1,"2","true",1.922,1,0,135,-96,-76,6,1,70
"790","4",-200,-202,6,-171.88,-174,1,"2","true",1.33,1,0,136,-202,-174,6,1,70
"791","4",-200,-203,6,-176.58,-179,1,"2","false",1.168,1,0,137,-203,-179,6,1,70
"792","4",-200,-195,6,-181.29,-177,1,"2","false",1.677,1,0,138,-195,-177,6,1,70
"793","4",-200,-194,6,-186,-180,1,"1","true",1.924,1,1,139,-194,-180,6,1,70
"794","0",200,198,6,150.38,149,1,"2","false",5.981,1,0,1,198,149,6,1,64
"795","3",400,416,6,464.98,483,11,"1","false",4.252,0,0,2,483,416,11,6,64
"796","0",200,190,6,110.38,105,1,"2","false",16.942,1,0,3,190,105,6,1,64
"797","7",-100,-98,6,-127.27,-125,11,"1","false",9.415,0,0,4,-125,-98,11,6,64
"798","0",200,197,6,70.38,69,1,"1","true",6.869,1,1,5,197,69,6,1,64
"799","1",200,206,6,247.22,254,11,"2","true",6.653,0,1,6,254,206,11,6,64
"800","1",200,202,6,207.22,209,11,"1","false",4.49,0,0,7,209,202,11,6,64
"801","7",-100,-95,6,-113.64,-108,11,"1","true",3.384,0,0,8,-108,-95,11,6,64
"802","2",400,414,6,352.65,365,1,"2","false",5.754,1,0,9,414,365,6,1,64
"803","7",-100,-99,6,-106.82,-105,11,"1","true",2.087,0,0,10,-105,-99,11,6,64
"804","4",-200,-205,6,-154.14,-158,1,"1","false",7.045,1,1,11,-205,-158,6,1,64
"805","3",400,418,6,504.98,528,11,"2","true",3.326,0,1,12,528,418,11,6,64
"806","6",-100,-101,6,-97.3,-99,1,"1","false",3.976,1,1,13,-101,-99,6,1,64
"807","1",200,209,6,247.22,259,11,"2","false",6.131,0,1,14,259,209,11,6,64
"808","1",200,192,6,219.22,210,11,"2","false",2.941,0,1,15,210,192,11,6,64
"809","7",-100,-99,6,-103.41,-102,11,"2","false",4.904,0,1,16,-102,-99,11,6,64
"810","1",200,191,6,209.61,200,11,"2","true",3.427,0,1,17,200,191,11,6,64
"811","3",400,412,6,464.98,479,11,"2","true",2.654,0,1,18,479,412,11,6,64
"812","0",200,192,6,98.38,94,1,"1","true",2.278,1,1,19,192,94,6,1,64
"813","3",400,396,6,424.98,421,11,"2","true",2.745,0,1,20,421,396,11,6,64
"814","6",-100,-98,6,-57.3,-56,1,"2","true",4.213,1,0,21,-98,-56,6,1,64
"815","4",-200,-196,6,-114.14,-112,1,"2","true",3.487,1,0,22,-196,-112,6,1,64
"816","7",-100,-98,6,-123.01,-121,11,"1","true",4.772,0,0,23,-121,-98,11,6,64
"817","6",-100,-98,6,-97.3,-96,1,"1","false",4.015,1,1,24,-98,-96,6,1,64
"818","0",200,204,6,126.38,129,1,"1","true",2.408,1,1,25,204,129,6,1,64
"819","0",200,208,6,154.38,161,1,"1","true",1.857,1,1,26,208,161,6,1,64
"820","2",400,412,6,312.65,322,1,"1","false",2.508,1,1,27,412,322,6,1,64
"821","2",400,395,6,352.65,348,1,"1","true",2.429,1,1,28,395,348,6,1,64
"822","6",-100,-105,6,-69.3,-73,1,"2","true",3.823,1,0,29,-105,-73,6,1,64
"823","6",-100,-100,6,-88.9,-89,1,"2","false",2.136,1,0,30,-100,-89,6,1,64
"824","0",200,209,6,182.38,191,1,"1","true",1.943,1,1,31,209,191,6,1,64
"825","0",200,192,6,191.19,184,1,"1","false",2.209,1,1,32,192,184,6,1,64
"826","2",400,406,6,392.65,398,1,"1","false",1.601,1,1,33,406,398,6,1,64
"827","6",-100,-99,6,-94.45,-93,1,"1","true",5.127,1,1,34,-99,-93,6,1,64
"828","7",-100,-97,6,-109.29,-106,11,"1","false",2.744,0,0,35,-106,-97,11,6,64
"829","5",-200,-197,6,-201.04,-198,11,"2","false",5.642,0,1,36,-198,-197,11,6,64
"830","5",-200,-196,6,-241.04,-237,11,"1","true",5.373,0,0,37,-237,-196,11,6,64
"831","3",400,387,6,412.49,399,11,"2","true",2.78,0,1,38,399,387,11,6,64
"832","7",-100,-100,6,-104.64,-105,11,"1","false",3.113,0,0,39,-105,-100,11,6,64
"833","2",400,401,6,396.32,397,1,"1","false",2.142,1,1,40,401,397,6,1,64
"834","0",200,194,6,195.6,190,1,"2","false",3.761,1,0,41,194,190,6,1,64
"835","1",200,206,6,204.8,211,11,"1","false",5.315,0,0,42,211,206,11,6,64
"836","4",-200,-194,6,-154.14,-149,1,"1","false",3.642,1,1,43,-194,-149,6,1,64
"837","3",400,407,6,406.24,413,11,"1","false",4.678,0,0,44,413,407,11,6,64
"838","6",-100,-100,6,-84.85,-85,1,"2","true",3.347,1,0,45,-100,-85,6,1,64
"839","1",200,196,6,214.41,210,11,"2","true",3.112,0,1,46,210,196,11,6,64
"840","4",-200,-209,6,-126.14,-132,1,"2","true",3.057,1,0,47,-209,-132,6,1,64
"841","0",200,201,6,185.99,187,1,"2","false",4.513,1,0,48,201,187,6,1,64
"842","0",200,198,6,176.39,175,1,"2","false",3.346,1,0,49,198,175,6,1,64
"843","7",-100,-105,6,-102.32,-107,11,"1","true",2.699,0,0,50,-107,-105,11,6,64
"844","3",400,387,6,419.96,406,11,"2","false",3.443,0,1,51,406,387,11,6,64
"845","6",-100,-101,6,-91.57,-92,1,"2","true",4.229,1,0,52,-101,-92,6,1,64
"846","1",200,197,6,207.68,205,11,"2","true",2.06,0,1,53,205,197,11,6,64
"847","5",-200,-203,6,-201.04,-204,11,"2","true",5.734,0,1,54,-204,-203,11,6,64
"848","2",400,413,6,398.16,411,1,"2","true",4.237,1,0,55,413,411,6,1,64
"849","6",-100,-100,6,-98.29,-98,1,"1","false",2.486,1,1,56,-100,-98,6,1,64
"850","1",200,206,6,200.96,207,11,"1","false",5.947,0,0,57,207,206,11,6,64
"851","6",-100,-103,6,-93.59,-97,1,"1","true",4.492,1,1,58,-103,-97,6,1,64
"852","0",200,203,6,166.78,169,1,"1","true",5.102,1,1,59,203,169,6,1,64
"853","3",400,420,6,410.36,431,11,"2","true",3.979,0,1,60,431,420,11,6,64
"854","4",-200,-199,6,-145.74,-145,1,"2","false",3.641,1,0,61,-199,-145,6,1,64
"855","1",200,190,6,205.67,196,11,"2","false",2.256,0,1,62,196,190,11,6,64
"856","7",-100,-102,6,-101.16,-103,11,"2","true",2.434,0,1,63,-103,-102,11,6,64
"857","2",400,410,6,384.44,394,1,"1","false",2.075,1,1,64,410,394,6,1,64
"858","5",-200,-204,6,-229.04,-234,11,"1","false",2.8,0,0,65,-234,-204,11,6,64
"859","3",400,386,6,400.76,387,11,"1","false",3.422,0,0,66,387,386,11,6,64
"860","4",-200,-204,6,-165.34,-168,1,"2","true",3.082,1,0,67,-204,-168,6,1,64
"861","2",400,383,6,394.05,378,1,"2","true",2.445,1,0,68,383,378,6,1,64
"862","5",-200,-198,6,-209.44,-207,11,"1","true",6.747,0,0,69,-207,-198,11,6,64
"863","0",200,201,6,173.51,174,1,"1","false",3.051,1,1,70,201,174,6,1,64
"864","6",-100,-99,6,-88.88,-88,1,"2","false",2.843,1,0,71,-99,-88,6,1,64
"865","4",-200,-203,6,-184.94,-188,1,"2","false",3.233,1,0,72,-203,-188,6,1,64
"866","4",-200,-202,6,-192.47,-194,1,"2","true",2.726,1,0,73,-202,-194,6,1,64
"867","4",-200,-206,6,-196.24,-202,1,"1","false",2.25,1,1,74,-206,-202,6,1,64
"868","3",400,415,6,407.48,423,11,"1","false",2.552,0,0,75,423,415,11,6,64
"869","4",-200,-202,6,-189.51,-191,1,"1","false",4.117,1,1,76,-202,-191,6,1,64
"870","5",-200,-198,6,-204.72,-203,11,"1","false",1.912,0,0,77,-203,-198,11,6,64
"871","5",-200,-197,6,-202.36,-200,11,"1","false",1.828,0,0,78,-200,-197,11,6,64
"872","0",200,207,6,180.23,187,1,"1","false",4.397,1,1,79,207,187,6,1,64
"873","2",400,414,6,387.32,401,1,"1","true",3.093,1,1,80,414,401,6,1,64
"874","0",200,191,6,186.95,179,1,"2","true",4.962,1,0,81,191,179,6,1,64
"875","5",-200,-200,6,-201.18,-201,11,"2","true",2.087,0,1,82,-201,-200,11,6,64
"876","0",200,204,6,182.25,186,1,"1","false",4.663,1,1,83,204,186,6,1,64
"877","3",400,412,6,414.2,427,11,"2","false",2.963,0,1,84,427,412,11,6,64
"878","4",-200,-199,6,-182.79,-182,1,"2","true",2.509,1,0,85,-199,-182,6,1,64
"879","3",400,387,6,409.5,396,11,"2","true",3.632,0,1,86,396,387,11,6,64
"880","3",400,384,6,404.79,389,11,"1","false",5.76,0,0,87,389,384,11,6,64
"881","5",-200,-208,6,-205.89,-215,11,"1","true",2.814,0,0,88,-215,-208,11,6,64
"882","4",-200,-199,6,-187.5,-186,1,"1","true",4.528,1,1,89,-199,-186,6,1,64
"883","2",400,412,6,392.03,404,1,"1","false",3.111,1,1,90,412,404,6,1,64
"884","2",400,407,6,396.73,403,1,"2","false",2.831,1,0,91,407,403,6,1,64
"885","6",-100,-98,6,-95.15,-93,1,"1","false",9.628,1,1,1,-98,-93,6,1,67
"886","2",400,383,6,295.65,283,1,"1","false",2.024,1,1,2,383,283,6,1,67
"887","6",-100,-103,6,-55.15,-57,1,"1","true",5.147,1,1,3,-103,-57,6,1,67
"888","7",-100,-102,6,-115.93,-118,11,"2","true",4.45,0,1,4,-118,-102,11,6,67
"889","7",-100,-101,6,-155.93,-157,11,"2","true",2.074,0,1,5,-157,-101,11,6,67
"890","4",-200,-197,6,-146.55,-144,1,"1","true",2.935,1,1,6,-197,-144,6,1,67
"891","0",200,195,6,175.52,171,1,"2","false",2.222,1,0,7,195,171,6,1,67
"892","0",200,203,6,135.52,137,1,"1","false",3.027,1,1,8,203,137,6,1,67
"893","4",-200,-199,6,-106.55,-106,1,"2","true",3.757,1,0,9,-199,-106,6,1,67
"894","4",-200,-190,6,-146.55,-139,1,"1","true",1.618,1,1,10,-190,-139,6,1,67
"895","1",200,209,6,209.5,219,11,"1","true",2.666,0,0,11,219,209,11,6,67
"896","2",400,407,6,335.65,342,1,"2","false",3.915,1,0,12,407,342,6,1,67
"897","3",400,392,6,408.78,401,11,"1","true",4.38,0,0,13,401,392,11,6,67
"898","7",-100,-104,6,-195.93,-205,11,"1","true",2.073,0,0,14,-205,-104,11,6,67
"899","5",-200,-196,6,-232.38,-228,11,"2","true",4.003,0,1,15,-228,-196,11,6,67
"900","5",-200,-208,6,-272.38,-283,11,"1","true",4.289,0,0,16,-283,-208,11,6,67
"901","6",-100,-102,6,-15.15,-16,1,"2","true",6.203,1,0,17,-102,-16,6,1,67
"902","1",200,195,6,249.5,243,11,"1","false",3.21,0,0,18,243,195,11,6,67
"903","4",-200,-208,6,-118.55,-123,1,"2","false",6.254,1,0,19,-208,-123,6,1,67
"904","7",-100,-99,6,-167.93,-165,11,"1","false",2.656,0,0,20,-165,-99,11,6,67
"905","4",-200,-206,6,-138.15,-142,1,"2","true",4.516,1,0,21,-206,-142,6,1,67
"906","4",-200,-204,6,-157.75,-161,1,"2","true",4.258,1,0,22,-204,-161,6,1,67
"907","6",-100,-97,6,-43.15,-42,1,"2","false",3.309,1,0,23,-97,-42,6,1,67
"908","1",200,197,6,289.5,285,11,"1","true",3.451,0,0,24,285,197,11,6,67
"909","7",-100,-96,6,-139.93,-135,11,"1","true",9.814,0,0,25,-135,-96,11,6,67
"910","7",-100,-98,6,-111.93,-110,11,"1","false",5.254,0,0,26,-110,-98,11,6,67
"911","0",200,208,6,175.52,183,1,"2","true",2.048,1,0,27,208,183,6,1,67
"912","1",200,205,6,329.5,337,11,"2","true",4.601,0,1,28,337,205,11,6,67
"913","5",-200,-191,6,-232.38,-222,11,"1","true",2.764,0,0,29,-222,-191,11,6,67
"914","6",-100,-103,6,-71.15,-73,1,"2","true",2.839,1,0,30,-103,-73,6,1,67
"915","6",-100,-100,6,-99.15,-99,1,"2","false",7.384,1,0,31,-100,-99,6,1,67
"916","3",400,413,6,448.78,464,11,"1","false",10.181,0,0,32,464,413,11,6,67
"917","1",200,194,6,301.5,292,11,"1","false",9.216,0,0,33,292,194,11,6,67
"918","3",400,396,6,488.78,484,11,"2","false",7.241,0,1,34,484,396,11,6,67
"919","3",400,406,6,460.78,467,11,"1","false",22.494,0,0,35,467,406,11,6,67
"920","3",400,415,6,480.38,498,11,"1","false",1.297,0,0,36,498,415,11,6,67
"921","3",400,390,6,499.98,488,11,"2","true",1.466,0,1,37,488,390,11,6,67
"922","2",400,391,6,295.65,289,1,"1","true",1.934,1,1,38,391,289,6,1,67
"923","4",-200,-197,6,-177.35,-174,1,"2","false",2.133,1,0,39,-197,-174,6,1,67
"924","0",200,191,6,147.52,141,1,"2","true",6.917,1,0,40,191,141,6,1,67
"925","4",-200,-209,6,-196.95,-206,1,"2","false",2.988,1,0,41,-209,-206,6,1,67
"926","7",-100,-97,6,-105.97,-102,11,"1","true",2.257,0,0,42,-102,-97,11,6,67
"927","1",200,206,6,321.1,330,11,"2","true",2.197,0,1,43,330,206,11,6,67
"928","7",-100,-102,6,-102.98,-105,11,"2","false",2.43,0,1,44,-105,-102,11,6,67
"929","0",200,205,6,119.52,123,1,"1","false",0.767,1,1,45,205,123,6,1,67
"930","2",400,403,6,323.65,326,1,"2","true",1.3,1,0,46,403,326,6,1,67
"931","7",-100,-102,6,-112.59,-115,11,"1","true",1.186,0,0,47,-115,-102,11,6,67
"932","4",-200,-196,6,-198.47,-195,1,"1","false",1.746,1,1,48,-196,-195,6,1,67
"933","4",-200,-195,6,-188.87,-184,1,"2","true",2.26,1,0,49,-195,-184,6,1,67
"934","4",-200,-190,6,-195.59,-186,1,"2","true",3.811,1,0,50,-190,-186,6,1,67
"935","1",200,192,6,307.38,296,11,"2","false",2.984,0,1,51,296,192,11,6,67
"936","4",-200,-203,6,-197.8,-201,1,"1","false",6.685,1,1,52,-203,-201,6,1,67
"937","7",-100,-102,6,-105.86,-108,11,"2","true",1.527,0,1,53,-108,-102,11,6,67
"938","0",200,203,6,139.12,141,1,"2","false",4.907,1,0,54,203,141,6,1,67
"939","7",-100,-101,6,-110.57,-111,11,"1","true",2.362,0,0,55,-111,-101,11,6,67
"940","0",200,193,6,125.4,121,1,"1","false",0.856,1,1,56,193,121,6,1,67
"941","0",200,194,6,135.01,131,1,"1","false",0.615,1,1,57,194,131,6,1,67
"942","6",-100,-98,6,-99.58,-98,1,"2","false",0.794,1,0,58,-98,-98,6,1,67
"943","3",400,382,6,486.26,465,11,"2","true",0.511,0,1,59,465,382,11,6,67
"944","3",400,397,6,472.54,469,11,"2","true",2.109,0,1,60,469,397,11,6,67
"945","2",400,382,6,304.05,290,1,"2","true",1.7,1,0,61,382,290,6,1,67
"946","6",-100,-98,6,-99.79,-98,1,"2","false",3.488,1,0,62,-98,-98,6,1,67
"947","2",400,415,6,284.45,295,1,"1","false",5.829,1,1,63,415,295,6,1,67
"948","1",200,197,6,293.66,289,11,"2","false",1.946,0,1,64,289,197,11,6,67
"949","1",200,190,6,279.94,266,11,"2","false",2.815,0,1,65,266,190,11,6,67
"950","6",-100,-100,6,-99.89,-100,1,"2","false",2.195,1,0,66,-100,-100,6,1,67
"951","6",-100,-96,6,-99.95,-96,1,"2","false",2.601,1,0,67,-96,-96,6,1,67
"952","1",200,207,6,266.22,276,11,"1","false",1.369,0,0,68,276,207,11,6,67
"953","1",200,207,6,275.82,285,11,"2","false",1.335,0,1,69,285,207,11,6,67
"954","5",-200,-203,6,-216.19,-219,11,"1","true",3.328,0,0,70,-219,-203,11,6,67
"955","2",400,411,6,298.17,307,1,"1","false",4.181,1,1,71,411,307,6,1,67
"956","1",200,198,6,269.1,266,11,"1","true",1.994,0,0,72,266,198,11,6,67
"957","5",-200,-208,6,-208.09,-217,11,"1","false",1.526,0,0,73,-217,-208,11,6,67
"958","6",-100,-98,6,-99.97,-98,1,"2","false",3.294,1,0,74,-98,-98,6,1,67
"959","3",400,402,6,458.82,461,11,"2","true",1.902,0,1,75,461,402,11,6,67
"960","6",-100,-105,6,-99.99,-105,1,"2","false",2.209,1,0,76,-105,-105,6,1,67
"961","5",-200,-201,6,-204.05,-205,11,"1","true",8.97,0,0,77,-205,-201,11,6,67
"962","1",200,193,6,273.81,264,11,"2","true",1.044,0,1,78,264,193,11,6,67
"963","5",-200,-201,6,-202.02,-203,11,"2","true",3.525,0,1,79,-203,-201,11,6,67
"964","6",-100,-98,6,-99.99,-98,1,"1","true",1.369,1,1,80,-98,-98,6,1,67
"965","0",200,205,6,144.61,148,1,"1","false",1.492,1,1,81,205,148,6,1,67
"966","0",200,203,6,154.22,156,1,"1","true",1.711,1,1,82,203,156,6,1,67
"967","2",400,390,6,311.89,304,1,"2","true",1.727,1,0,83,390,304,6,1,67
"968","5",-200,-192,6,-208.75,-201,11,"1","true",1.232,0,0,84,-201,-192,11,6,67
"969","0",200,201,6,163.82,165,1,"1","true",1.245,1,1,85,201,165,6,1,67
"970","3",400,412,6,445.1,459,11,"2","true",2.52,0,1,86,459,412,11,6,67
"971","5",-200,-210,6,-204.04,-214,11,"1","false",2.809,0,0,87,-214,-210,11,6,67
"972","0",200,191,6,173.42,166,1,"1","true",2.187,1,1,88,191,166,6,1,67
"973","5",-200,-191,6,-202.02,-193,11,"1","true",3.772,0,0,89,-193,-191,11,6,67
"974","5",-200,-207,6,-201.01,-208,11,"1","true",4.982,0,0,90,-208,-207,11,6,67
"975","2",400,398,6,302.28,301,1,"1","true",4.663,1,1,91,398,301,6,1,67
"976","2",400,397,6,309.01,307,1,"2","true",41.634,1,0,92,397,307,6,1,67
"977","0",200,205,6,183.03,187,1,"2","false",43.044,1,0,93,205,187,6,1,67
"978","0",200,197,6,176.31,174,1,"2","true",2.065,1,0,94,197,174,6,1,67
"979","0",200,192,6,169.58,163,1,"2","true",1.855,1,0,95,192,163,6,1,67
"980","2",400,400,6,304.3,305,1,"1","false",1.575,1,1,96,400,305,6,1,67
"981","3",400,384,6,431.38,414,11,"2","false",2.139,0,1,97,414,384,11,6,67
"982","0",200,202,6,162.86,164,1,"1","true",2.165,1,1,98,202,164,6,1,67
"983","0",200,191,6,167.57,160,1,"2","true",1.42,1,0,99,191,160,6,1,67
"984","5",-200,-198,6,-200.51,-198,11,"2","false",1.612,0,1,100,-198,-198,11,6,67
"985","3",400,387,6,417.66,404,11,"1","false",1.116,0,0,101,404,387,11,6,67
"986","3",400,414,6,427.26,443,11,"2","true",1.162,0,1,102,443,414,11,6,67
"987","3",400,418,6,420.54,440,11,"1","true",3.999,0,0,103,440,418,11,6,67
"988","3",400,403,6,425.25,428,11,"1","false",7.76,0,0,104,428,403,11,6,67
"989","3",400,412,6,429.95,443,11,"1","false",4.523,0,0,105,443,412,11,6,67
"990","3",400,391,6,434.66,425,11,"1","true",7.86,0,0,106,425,391,11,6,67
"991","3",400,401,6,439.37,440,11,"2","true",8.417,0,1,107,440,401,11,6,67
"992","2",400,386,6,335.11,324,1,"2","true",7.198,1,0,1,386,324,6,1,73
"993","0",200,192,6,197.2,189,1,"2","false",2.891,1,0,2,192,189,6,1,73
"994","1",200,203,6,250.25,254,11,"1","false",4.328,0,0,3,254,203,11,6,73
"995","2",400,385,6,295.11,284,1,"1","false",3.964,1,1,4,385,284,6,1,73
"996","5",-200,-192,6,-246.18,-237,11,"1","true",4.469,0,0,5,-237,-192,11,6,73
"997","0",200,200,6,157.2,157,1,"2","true",4.872,1,0,6,200,157,6,1,73
"998","6",-100,-100,6,-93.97,-94,1,"1","false",4.645,1,1,7,-100,-94,6,1,73
"999","7",-100,-99,6,-120.8,-120,11,"1","true",3.238,0,0,8,-120,-99,11,6,73
"1000","1",200,194,6,290.25,282,11,"2","false",3.706,0,1,9,282,194,11,6,73
"1001","3",400,396,6,465.13,461,11,"2","true",3.952,0,1,10,461,396,11,6,73
"1002","6",-100,-99,6,-53.97,-54,1,"2","false",4.511,1,0,11,-99,-54,6,1,73
"1003","2",400,416,6,335.11,348,1,"1","false",3.594,1,1,12,416,348,6,1,73
"1004","5",-200,-203,6,-206.18,-209,11,"2","false",5.217,0,1,13,-209,-203,11,6,73
"1005","5",-200,-205,6,-246.18,-252,11,"1","true",7.608,0,0,14,-252,-205,11,6,73
"1006","1",200,193,6,250.25,241,11,"1","false",3.325,0,0,15,241,193,11,6,73
"1007","2",400,387,6,375.11,363,1,"1","true",4.69,1,1,16,387,363,6,1,73
"1008","3",400,419,6,425.13,445,11,"1","true",4.421,0,0,17,445,419,11,6,73
"1009","7",-100,-98,6,-110.4,-108,11,"2","true",3.792,0,1,18,-108,-98,11,6,73
"1010","2",400,410,6,387.55,397,1,"2","false",2.966,1,0,19,410,397,6,1,73
"1011","0",200,200,6,117.2,117,1,"1","false",3.077,1,1,20,200,117,6,1,73
"1012","5",-200,-196,6,-218.18,-214,11,"2","false",4.073,0,1,21,-214,-196,11,6,73
"1013","0",200,198,6,145.2,144,1,"1","false",4.994,1,1,22,198,144,6,1,73
"1014","1",200,200,6,278.25,278,11,"2","true",4.881,0,1,23,278,200,11,6,73
"1015","6",-100,-102,6,-93.97,-96,1,"1","false",2.078,1,1,24,-102,-96,6,1,73
"1016","6",-100,-104,6,-65.97,-68,1,"2","true",2.486,1,0,25,-104,-68,6,1,73
"1017","3",400,406,6,465.13,472,11,"2","false",5.763,0,1,26,472,406,11,6,73
"1018","2",400,404,6,367.95,372,1,"2","false",4.531,1,0,27,404,372,6,1,73
"1019","0",200,203,6,173.2,176,1,"2","false",2.968,1,0,28,203,176,6,1,73
"1020","2",400,420,6,348.35,365,1,"2","true",2.78,1,0,29,420,365,6,1,73
"1021","3",400,402,6,437.13,439,11,"1","false",3.219,0,0,30,439,402,11,6,73
"1022","4",-200,-195,6,-187.63,-183,1,"1","true",3.169,1,1,31,-195,-183,6,1,73
"1023","6",-100,-102,6,-85.57,-88,1,"1","false",3.03,1,1,32,-102,-88,6,1,73
"1024","7",-100,-95,6,-150.4,-143,11,"1","true",3.28,0,0,33,-143,-95,11,6,73
"1025","3",400,412,6,456.73,471,11,"2","false",4.998,0,1,34,471,412,11,6,73
"1026","2",400,382,6,328.75,314,1,"1","false",3.344,1,1,35,382,314,6,1,73
"1027","6",-100,-97,6,-71.85,-70,1,"2","false",2.722,1,0,36,-97,-70,6,1,73
"1028","4",-200,-208,6,-147.63,-154,1,"2","false",3.641,1,0,37,-208,-154,6,1,73
"1029","3",400,388,6,443.01,429,11,"1","false",4.76,0,0,38,429,388,11,6,73
"1030","6",-100,-104,6,-81.45,-85,1,"2","true",4.206,1,0,39,-104,-85,6,1,73
"1031","5",-200,-203,6,-237.78,-241,11,"2","true",3.437,0,1,40,-241,-203,11,6,73
"1032","5",-200,-206,6,-257.38,-266,11,"1","true",4.861,0,0,41,-266,-206,11,6,73
"1033","4",-200,-197,6,-187.63,-185,1,"1","false",2.588,1,1,42,-197,-185,6,1,73
"1034","0",200,194,6,153.6,149,1,"1","false",4.897,1,1,43,194,149,6,1,73
"1035","7",-100,-97,6,-122.4,-118,11,"1","false",3.355,0,0,44,-118,-97,11,6,73
"1036","5",-200,-195,6,-243.66,-237,11,"1","true",3.235,0,0,45,-237,-195,11,6,73
"1037","7",-100,-102,6,-111.2,-113,11,"1","false",4.178,0,0,46,-113,-102,11,6,73
"1038","0",200,191,6,167.32,160,1,"2","false",2.627,1,0,47,191,160,6,1,73
"1039","2",400,414,6,342.47,355,1,"1","true",2.886,1,1,48,414,355,6,1,73
"1040","2",400,407,6,356.19,362,1,"1","false",3.908,1,1,49,407,362,6,1,73
"1041","7",-100,-99,6,-105.6,-104,11,"1","false",3.622,0,0,50,-104,-99,11,6,73
"1042","7",-100,-101,6,-102.8,-104,11,"1","false",3.358,0,0,51,-104,-101,11,6,73
"1043","6",-100,-96,6,-91.05,-87,1,"2","true",3.399,1,0,52,-96,-87,6,1,73
"1044","4",-200,-193,6,-159.63,-154,1,"2","true",5.607,1,0,53,-193,-154,6,1,73
"1045","1",200,192,6,258.65,248,11,"1","false",3.331,0,0,54,248,192,11,6,73
"1046","5",-200,-204,6,-229.94,-234,11,"2","true",3.824,0,1,55,-234,-204,11,6,73
"1047","7",-100,-97,6,-101.4,-98,11,"1","true",3.608,0,0,56,-98,-97,11,6,73
"1048","2",400,404,6,369.91,373,1,"1","false",3.21,1,1,57,404,373,6,1,73
"1049","6",-100,-102,6,-95.53,-97,1,"1","false",3.221,1,1,58,-102,-97,6,1,73
"1050","4",-200,-199,6,-179.23,-179,1,"2","true",4.08,1,0,59,-199,-179,6,1,73
"1051","6",-100,-96,6,-90.82,-87,1,"1","true",3.423,1,1,60,-96,-87,6,1,73
"1052","2",400,390,6,383.63,375,1,"2","true",3.326,1,0,61,390,375,6,1,73
"1053","7",-100,-104,6,-100.7,-105,11,"2","false",4.627,0,1,62,-105,-104,11,6,73
"1054","5",-200,-204,6,-239.54,-244,11,"2","false",6.359,0,1,63,-244,-204,11,6,73
"1055","5",-200,-194,6,-249.15,-241,11,"1","false",3.061,0,0,64,-241,-194,11,6,73
"1056","1",200,195,6,272.37,266,11,"1","false",3.007,0,0,65,266,195,11,6,73
"1057","6",-100,-102,6,-86.12,-88,1,"2","true",3.174,1,0,66,-102,-88,6,1,73
"1058","3",400,388,6,452.61,439,11,"1","true",4.554,0,0,67,439,388,11,6,73
"1059","3",400,409,6,462.21,473,11,"2","true",5.652,0,1,68,473,409,11,6,73
"1060","4",-200,-193,6,-198.83,-192,1,"1","false",3.323,1,1,69,-193,-192,6,1,73
"1061","5",-200,-208,6,-242.42,-252,11,"1","false",6.765,0,0,70,-252,-208,11,6,73
"1062","4",-200,-204,6,-185.11,-188,1,"2","false",3.803,1,0,71,-204,-188,6,1,73
"1063","0",200,206,6,157.72,162,1,"1","false",3.202,1,1,72,206,162,6,1,73
"1064","1",200,205,6,286.09,293,11,"1","false",3.621,0,0,73,293,205,11,6,73
"1065","3",400,388,6,455.49,442,11,"2","true",6.749,0,1,74,442,388,11,6,73
"1066","5",-200,-194,6,-235.7,-229,11,"1","false",3.059,0,0,75,-229,-194,11,6,73
"1067","0",200,210,6,164.44,172,1,"1","false",2.531,1,1,76,210,172,6,1,73
"1068","3",400,396,6,448.77,444,11,"1","true",4.252,0,0,77,444,396,11,6,73
"1069","0",200,193,6,171.17,165,1,"1","true",6.185,1,1,78,193,165,6,1,73
"1070","0",200,205,6,177.89,182,1,"1","false",3.025,1,1,79,205,182,6,1,73
"1071","0",200,200,6,184.61,184,1,"2","true",4.638,1,0,80,200,184,6,1,73
"1072","4",-200,-207,6,-194.71,-201,1,"1","false",2.764,1,1,81,-207,-201,6,1,73
"1073","1",200,209,6,299.81,313,11,"2","false",5.718,0,1,82,313,209,11,6,73
"1074","4",-200,-195,6,-187.99,-184,1,"1","false",4.001,1,1,83,-195,-184,6,1,73
"1075","4",-200,-205,6,-181.27,-186,1,"2","false",3.721,1,0,84,-205,-186,6,1,73
"1076","1",200,203,6,290.2,294,11,"2","true",7.145,0,1,85,294,203,11,6,73
"1077","1",200,207,6,280.6,291,11,"2","false",3.075,0,1,86,291,207,11,6,73
"1078","2",400,406,6,374.03,379,1,"2","true",5.202,1,0,87,406,379,6,1,73
"1079","3",400,409,6,453.47,464,11,"1","false",2.147,0,0,88,464,409,11,6,73
"1080","4",-200,-202,6,-185.97,-188,1,"1","true",4.136,1,1,89,-202,-188,6,1,73
"1081","0",200,194,6,179.91,175,1,"2","false",2.158,1,0,90,194,175,6,1,73
"1082","2",400,382,6,364.43,348,1,"2","true",3.155,1,0,91,382,348,6,1,73
"1083","0",200,191,6,175.2,167,1,"2","false",2.247,1,0,92,191,167,6,1,73
"1084","0",200,192,6,170.49,164,1,"2","true",2.395,1,0,93,192,164,6,1,73
"1085","1",200,194,6,271,262,11,"1","false",3.941,0,0,94,262,194,11,6,73
"1086","1",200,194,6,277.72,269,11,"1","false",2.235,0,0,95,269,194,11,6,73
"1087","5",-200,-206,6,-228.98,-236,11,"2","true",5.856,0,1,96,-236,-206,11,6,73
"1088","0",200,200,6,165.79,166,1,"1","true",2.33,1,1,97,200,166,6,1,73
"1089","5",-200,-198,6,-233.68,-231,11,"1","true",5.247,0,0,98,-231,-198,11,6,73
"1090","2",400,419,6,354.82,372,1,"1","false",2.948,1,1,99,419,372,6,1,73
"1091","2",400,404,6,361.54,365,1,"1","false",2.824,1,1,100,404,365,6,1,73
"1092","3",400,381,6,458.18,436,11,"1","false",3.292,0,0,101,436,381,11,6,73
"1093","1",200,198,6,284.44,281,11,"1","true",2.51,0,0,102,281,198,11,6,73
"1094","1",200,201,6,291.16,292,11,"1","true",2.671,0,0,103,292,201,11,6,73
"1095","3",400,386,6,462.89,447,11,"1","false",2.925,0,0,104,447,386,11,6,73
"1096","2",400,401,6,368.27,369,1,"2","true",4.291,1,0,105,401,369,6,1,73
"1097","1",200,195,6,297.89,291,11,"2","false",6.172,0,1,106,291,195,11,6,73
"1098","1",200,193,6,293.18,283,11,"2","true",3.623,0,1,107,283,193,11,6,73
"1099","1",200,208,6,288.47,300,11,"2","false",3.921,0,1,108,300,208,11,6,73
"1100","2",400,404,6,363.56,367,1,"1","false",3.223,1,1,109,404,367,6,1,73
"1101","3",400,383,6,467.59,448,11,"1","true",4.92,0,0,110,448,383,11,6,73
"1102","3",400,402,6,472.3,475,11,"1","true",4.807,0,0,111,475,402,11,6,73
"1103","3",400,414,6,477,494,11,"1","true",2.606,0,0,112,494,414,11,6,73
"1104","1",200,202,6,283.77,287,11,"1","false",3.024,0,0,113,287,202,11,6,73
"1105","3",400,419,6,481.71,504,11,"1","false",3.486,0,0,114,504,419,11,6,73
"1106","3",400,408,6,486.42,496,11,"1","true",3.358,0,0,115,496,408,11,6,73
"1107","3",400,412,6,491.12,506,11,"1","false",4.392,0,0,116,506,412,11,6,73
"1108","3",400,393,6,495.83,487,11,"1","true",3.502,0,0,117,487,393,11,6,73
"1109","3",400,398,6,500.53,498,11,"2","false",3.184,0,1,118,498,398,11,6,73
"1110","4",-200,-195,6,-175.39,-171,1,"2","true",5.142,1,0,1,-195,-171,6,1,87
"1111","4",-200,-193,6,-187.7,-181,1,"2","false",1.402,1,0,2,-193,-181,6,1,87
"1112","3",400,417,6,493.54,515,11,"1","true",2.27,0,0,3,515,417,11,6,87
"1113","6",-100,-103,6,-74.83,-77,1,"2","false",17.079,1,0,4,-103,-77,6,1,87
"1114","0",200,197,6,199.06,196,1,"2","false",1.369,1,0,5,197,196,6,1,87
"1115","0",200,191,6,159.06,152,1,"2","false",0.729,1,0,6,191,152,6,1,87
"1116","6",-100,-96,6,-87.42,-84,1,"2","true",0.99,1,0,7,-96,-84,6,1,87
"1117","2",400,403,6,399.99,403,1,"2","false",1.143,1,0,8,403,403,6,1,87
"1118","7",-100,-103,6,-122.25,-126,11,"2","true",1.004,0,1,9,-126,-103,11,6,87
"1119","7",-100,-101,6,-162.25,-164,11,"1","false",0.676,0,0,10,-164,-101,11,6,87
"1120","4",-200,-192,6,-193.85,-186,1,"2","false",0.684,1,0,11,-192,-186,6,1,87
"1121","2",400,391,6,359.99,352,1,"2","true",0.897,1,0,12,391,352,6,1,87
"1122","0",200,196,6,119.06,117,1,"2","true",0.697,1,0,13,196,117,6,1,87
"1123","7",-100,-104,6,-122.25,-127,11,"2","true",0.783,0,1,14,-127,-104,11,6,87
"1124","6",-100,-97,6,-93.71,-91,1,"2","false",1.024,1,0,15,-97,-91,6,1,87
"1125","1",200,199,6,226.17,225,11,"1","false",0.896,0,0,16,225,199,11,6,87
"1126","2",400,389,6,319.99,312,1,"1","true",0.606,1,1,17,389,312,6,1,87
"1127","7",-100,-102,6,-150.25,-154,11,"1","false",0.521,0,0,18,-154,-102,11,6,87
"1128","6",-100,-103,6,-96.85,-100,1,"2","true",0.534,1,0,19,-103,-100,6,1,87
"1129","6",-100,-105,6,-98.43,-103,1,"2","false",0.903,1,0,20,-105,-103,6,1,87
"1130","1",200,194,6,266.17,258,11,"1","false",0.789,0,0,21,258,194,11,6,87
"1131","2",400,386,6,347.99,336,1,"2","false",0.941,1,0,22,386,336,6,1,87
"1132","0",200,191,6,79.06,75,1,"2","true",1.122,1,0,23,191,75,6,1,87
"1133","7",-100,-100,6,-130.65,-131,11,"2","false",0.785,0,1,24,-131,-100,11,6,87
"1134","6",-100,-96,6,-99.21,-95,1,"1","false",0.431,1,1,25,-96,-95,6,1,87
"1135","7",-100,-96,6,-144.37,-138,11,"1","false",0.587,0,0,26,-138,-96,11,6,87
"1136","0",200,206,6,39.06,40,1,"1","false",0.439,1,1,27,206,40,6,1,87
"1137","3",400,405,6,533.54,540,11,"2","true",0.854,0,1,28,540,405,11,6,87
"1138","1",200,206,6,306.17,315,11,"1","true",0.984,0,0,29,315,206,11,6,87
"1139","6",-100,-96,6,-89.61,-86,1,"2","true",1.477,1,0,30,-96,-86,6,1,87
"1140","7",-100,-98,6,-134.76,-131,11,"1","true",1.845,0,0,31,-131,-98,11,6,87
"1141","2",400,382,6,328.39,313,1,"2","false",0.741,1,0,32,382,313,6,1,87
"1142","4",-200,-192,6,-196.92,-189,1,"2","false",0.778,1,0,33,-192,-189,6,1,87
"1143","3",400,405,6,493.54,500,11,"1","false",1.652,0,0,34,500,405,11,6,87
"1144","4",-200,-205,6,-198.46,-203,1,"2","false",1.47,1,0,35,-205,-203,6,1,87
"1145","3",400,380,6,521.54,496,11,"1","true",1.96,0,0,36,496,380,11,6,87
"1146","2",400,394,6,308.79,304,1,"2","false",0.577,1,0,37,394,304,6,1,87
"1147","6",-100,-100,6,-96.33,-96,1,"2","false",0.912,1,0,38,-100,-96,6,1,87
"1148","4",-200,-204,6,-199.23,-203,1,"2","true",0.823,1,0,39,-204,-203,6,1,87
"1149","5",-200,-197,6,-231.59,-228,11,"1","true",0.941,0,0,40,-228,-197,11,6,87
"1150","4",-200,-198,6,-199.62,-197,1,"2","true",3.318,1,0,41,-198,-197,6,1,87
"1151","0",200,193,6,67.06,65,1,"2","true",1.011,1,0,42,193,65,6,1,87
"1152","1",200,199,6,346.17,345,11,"1","true",1.514,0,0,43,345,199,11,6,87
"1153","7",-100,-100,6,-125.16,-125,11,"1","false",2.175,0,0,44,-125,-100,11,6,87
"1154","1",200,195,6,386.17,376,11,"1","true",0.874,0,0,45,376,195,11,6,87
"1155","5",-200,-202,6,-215.8,-218,11,"2","true",1.407,0,1,46,-218,-202,11,6,87
"1156","0",200,207,6,47.46,49,1,"2","false",0.616,1,0,47,207,49,6,1,87
"1157","0",200,198,6,27.86,28,1,"1","true",0.486,1,1,48,198,28,6,1,87
"1158","5",-200,-206,6,-255.8,-264,11,"2","true",1.185,0,1,49,-264,-206,11,6,87
"1159","3",400,398,6,549.54,547,11,"2","false",0.455,0,1,50,547,398,11,6,87
"1160","6",-100,-100,6,-98.17,-98,1,"2","false",1.322,1,0,51,-100,-98,6,1,87
"1161","3",400,418,6,529.94,554,11,"1","false",31.071,0,0,52,554,418,11,6,87
"1162","1",200,202,6,426.17,431,11,"1","false",1.526,0,0,53,431,202,11,6,87
"1163","4",-200,-204,6,-199.81,-204,1,"2","true",1.435,1,0,54,-204,-204,6,1,87
"1164","5",-200,-209,6,-295.8,-309,11,"1","true",1.791,0,0,55,-309,-209,11,6,87
"1165","5",-200,-200,6,-267.8,-268,11,"1","true",0.759,0,0,56,-268,-200,11,6,87
"1166","3",400,407,6,543.66,553,11,"1","false",0.64,0,0,57,553,407,11,6,87
"1167","6",-100,-101,6,-99.08,-101,1,"2","true",0.535,1,0,58,-101,-101,6,1,87
"1168","4",-200,-190,6,-199.9,-190,1,"2","false",0.632,1,0,59,-190,-190,6,1,87
"1169","3",400,416,6,557.38,579,11,"2","true",0.594,0,1,60,579,416,11,6,87
"1170","5",-200,-192,6,-239.8,-230,11,"2","false",0.634,0,1,61,-230,-192,11,6,87
"1171","3",400,419,6,547.78,573,11,"1","true",1.551,0,0,62,573,419,11,6,87
"1172","7",-100,-99,6,-115.55,-115,11,"1","false",1.195,0,0,63,-115,-99,11,6,87
"1173","0",200,191,6,41.58,40,1,"1","false",0.517,1,1,64,191,40,6,1,87
"1174","7",-100,-101,6,-105.95,-107,11,"1","false",16.112,0,0,65,-107,-101,11,6,87
"1175","2",400,404,6,289.19,292,1,"1","true",1.611,1,1,66,404,292,6,1,87
"1176","5",-200,-198,6,-259.4,-257,11,"1","false",2.526,0,0,67,-257,-198,11,6,87
"1177","6",-100,-96,6,-99.54,-96,1,"2","false",2.279,1,0,68,-96,-96,6,1,87
"1178","6",-100,-96,6,-99.77,-96,1,"2","true",1.574,1,0,69,-96,-96,6,1,87
"1179","4",-200,-203,6,-199.95,-203,1,"2","true",1.442,1,0,70,-203,-203,6,1,87
"1180","0",200,190,6,55.3,53,1,"1","true",1.236,1,1,71,190,53,6,1,87
"1181","5",-200,-199,6,-245.68,-244,11,"1","false",0.679,0,0,72,-244,-199,11,6,87
"1182","7",-100,-101,6,-102.98,-104,11,"1","true",18.853,0,0,73,-104,-101,11,6,87
"1183","1",200,206,6,466.17,481,11,"1","true",1.405,0,0,74,481,206,11,6,87
"1184","2",400,390,6,302.91,296,1,"2","true",3.145,1,0,75,390,296,6,1,87
"1185","0",200,202,6,69.02,70,1,"2","false",0.798,1,0,76,202,70,6,1,87
"1186","5",-200,-208,6,-231.96,-241,11,"1","false",0.888,0,0,77,-241,-208,11,6,87
"1187","7",-100,-98,6,-101.49,-99,11,"1","false",1.208,0,0,78,-99,-98,11,6,87
"1188","7",-100,-103,6,-100.74,-104,11,"1","false",1.077,0,0,79,-104,-103,11,6,87
"1189","7",-100,-96,6,-100.37,-97,11,"1","true",1.003,0,0,80,-97,-96,11,6,87
"1190","0",200,190,6,59.42,57,1,"2","true",1.045,1,0,81,190,57,6,1,87
"1191","2",400,402,6,293.31,295,1,"2","false",1.437,1,0,82,402,295,6,1,87
"1192","4",-200,-198,6,-199.98,-198,1,"2","false",1.422,1,0,83,-198,-198,6,1,87
"1193","6",-100,-100,6,-99.89,-100,1,"2","false",0.84,1,0,84,-100,-100,6,1,87
"1194","5",-200,-198,6,-218.24,-216,11,"1","true",1.216,0,0,85,-216,-198,11,6,87
"1195","6",-100,-97,6,-99.94,-97,1,"2","false",1.468,1,0,86,-97,-97,6,1,87
"1196","4",-200,-208,6,-199.99,-208,1,"2","true",1.599,1,0,87,-208,-208,6,1,87
"1197","3",400,405,6,554.5,561,11,"1","false",2.007,0,0,88,561,405,11,6,87
"1198","3",400,391,6,561.23,549,11,"1","false",0.742,0,0,89,549,391,11,6,87
"1199","1",200,191,6,506.17,483,11,"1","true",1.163,0,0,90,483,191,11,6,87
"1200","3",400,414,6,567.95,588,11,"1","false",0.751,0,0,91,588,414,11,6,87
"1201","4",-200,-192,6,-199.99,-192,1,"1","false",0.619,1,1,92,-192,-192,6,1,87
"1202","3",400,418,6,574.67,600,11,"1","true",0.91,0,0,93,600,418,11,6,87
"1203","6",-100,-97,6,-99.97,-97,1,"2","true",1.592,1,0,94,-97,-97,6,1,87
"1204","0",200,202,6,49.81,50,1,"2","false",1.064,1,0,95,202,50,6,1,87
"1205","5",-200,-197,6,-204.52,-201,11,"1","false",11.748,0,0,96,-201,-197,11,6,87
"1206","7",-100,-95,6,-100.19,-95,11,"1","true",1.613,0,0,97,-95,-95,11,6,87
"1207","3",400,413,6,581.39,601,11,"1","false",3.19,0,0,98,601,413,11,6,87
"1208","5",-200,-192,6,-202.26,-194,11,"1","true",1.102,0,0,99,-194,-192,11,6,87
"1209","7",-100,-105,6,-100.09,-105,11,"1","true",1.349,0,0,100,-105,-105,11,6,87
"1210","1",200,194,6,546.17,531,11,"1","false",1.239,0,0,101,531,194,11,6,87
"1211","5",-200,-201,6,-201.13,-202,11,"1","false",1.912,0,0,102,-202,-201,11,6,87
"1212","6",-100,-102,6,-99.99,-102,1,"2","false",1.088,1,0,103,-102,-102,6,1,87
"1213","2",400,404,6,283.7,287,1,"2","false",1.494,1,0,104,404,287,6,1,87
"1214","2",400,408,6,274.1,279,1,"2","true",1.857,1,0,105,408,279,6,1,87
"1215","6",-100,-102,6,-99.99,-102,1,"2","false",1.072,1,0,106,-102,-102,6,1,87
"1216","0",200,202,6,40.21,41,1,"2","false",0.607,1,0,107,202,41,6,1,87
"1217","6",-100,-101,6,-100,-101,1,"2","false",1.079,1,0,108,-101,-101,6,1,87
"1218","5",-200,-208,6,-200.56,-208,11,"1","true",1.251,0,0,109,-208,-208,11,6,87
"1219","6",-100,-98,6,-100,-98,1,"2","true",1.356,1,0,110,-98,-98,6,1,87
"1220","5",-200,-193,6,-200.28,-193,11,"1","false",49.64,0,0,111,-193,-193,11,6,87
"1221","1",200,191,6,586.17,558,11,"1","false",1.894,0,0,112,558,191,11,6,87
"1222","5",-200,-199,6,-200.14,-200,11,"1","false",1.268,0,0,113,-200,-199,11,6,87
"1223","2",400,380,6,264.49,251,1,"2","true",1.23,1,0,114,380,251,6,1,87
"1224","2",400,392,6,254.89,250,1,"1","false",0.749,1,1,115,392,250,6,1,87
"1225","6",-100,-95,6,-100,-95,1,"2","true",0.726,1,0,116,-95,-95,6,1,87
"1226","5",-200,-210,6,-200.07,-210,11,"1","false",1.718,0,0,117,-210,-210,11,6,87
"1227","3",400,392,6,588.12,577,11,"1","true",1.96,0,0,118,577,392,11,6,87
"1228","0",200,209,6,30.6,32,1,"1","true",1.209,1,1,119,209,32,6,1,87
"1229","0",200,191,6,37.33,36,1,"1","true",2.118,1,1,120,191,36,6,1,87
"1230","5",-200,-200,6,-200.04,-200,11,"1","true",2.097,0,0,121,-200,-200,11,6,87
"1231","0",200,203,6,44.05,45,1,"1","false",1.344,1,1,122,203,45,6,1,87
"1232","2",400,413,6,261.61,270,1,"1","false",0.856,1,1,123,413,270,6,1,87
"1233","0",200,207,6,50.77,52,1,"1","true",0.965,1,1,124,207,52,6,1,87
"1234","6",-100,-103,6,-100,-103,1,"1","false",1.384,1,1,125,-103,-103,6,1,87
"1235","2",400,385,6,268.33,258,1,"1","true",1.369,1,1,126,385,258,6,1,87
"1236","7",-100,-98,6,-100.05,-98,11,"1","false",0.823,0,0,127,-98,-98,11,6,87
"1237","7",-100,-105,6,-100.02,-105,11,"2","true",2.101,0,1,128,-105,-105,11,6,87
"1238","0",200,197,6,57.49,57,1,"1","false",1.269,1,1,129,197,57,6,1,87
"1239","1",200,206,6,626.17,645,11,"2","true",0.633,0,1,130,645,206,11,6,87
"1240","1",200,198,6,598.17,593,11,"2","true",0.697,0,1,131,593,198,11,6,87
"1241","5",-200,-195,6,-200.02,-195,11,"2","true",1.308,0,1,132,-195,-195,11,6,87
"1242","0",200,204,6,64.22,65,1,"1","true",0.958,1,1,133,204,65,6,1,87
"1243","1",200,195,6,570.17,556,11,"2","false",1.12,0,1,134,556,195,11,6,87
"1244","2",400,415,6,275.06,285,1,"1","false",0.837,1,1,135,415,285,6,1,87
"1245","0",200,200,6,70.94,71,1,"1","true",17.502,1,1,136,200,71,6,1,87
"1246","0",200,193,6,77.66,75,1,"1","true",1.335,1,1,137,193,75,6,1,87
"1247","3",400,412,6,594.84,612,11,"2","false",1.046,0,1,138,612,412,11,6,87
"1248","1",200,204,6,542.17,552,11,"2","true",0.96,0,1,139,552,204,11,6,87
"1249","3",400,404,6,590.13,597,11,"2","true",0.685,0,1,140,597,404,11,6,87
"1250","1",200,197,6,514.17,505,11,"2","true",0.705,0,1,141,505,197,11,6,87
"1251","3",400,398,6,585.43,583,11,"2","true",0.687,0,1,142,583,398,11,6,87
"1252","0",200,195,6,84.39,82,1,"1","true",1.342,1,1,143,195,82,6,1,87
"1253","2",400,414,6,281.78,292,1,"1","false",11.298,1,1,144,414,292,6,1,87
"1254","1",200,204,6,486.17,497,11,"2","true",0.58,0,1,145,497,204,11,6,87
"1255","1",200,207,6,458.17,473,11,"2","false",2.072,0,1,146,473,207,11,6,87
"1256","0",200,190,6,91.11,87,1,"1","false",5.323,1,1,147,190,87,6,1,87
"1257","0",200,208,6,97.83,102,1,"1","true",1.328,1,1,148,208,102,6,1,87
"1258","0",200,201,6,104.55,105,1,"1","true",1.18,1,1,149,201,105,6,1,87
"1259","3",400,387,6,580.72,561,11,"2","false",1.002,0,1,150,561,387,11,6,87
"1260","0",200,195,6,111.28,108,1,"1","true",1.422,1,1,151,195,108,6,1,87
"1261","3",400,386,6,576.02,555,11,"2","false",1.514,0,1,152,555,386,11,6,87
"1262","2",400,418,6,288.5,302,1,"1","false",0.854,1,1,153,418,302,6,1,87
"1263","0",200,200,6,118,118,1,"1","false",0.919,1,1,154,200,118,6,1,87
"1264","2",400,382,6,295.23,282,1,"2","true",0.568,1,0,155,382,282,6,1,87
"1265","0",200,195,6,124.72,121,1,"1","false",1.263,1,1,156,195,121,6,1,87
"1266","3",400,399,6,571.31,570,11,"2","true",0.583,0,1,157,570,399,11,6,87
"1267","3",400,405,6,566.6,573,11,"2","true",0.643,0,1,158,573,405,11,6,87
"1268","0",200,208,6,131.45,136,1,"1","true",1.402,1,1,159,208,136,6,1,87
"1269","1",200,199,6,430.17,429,11,"2","false",0.931,0,1,160,429,199,11,6,87
"1270","0",200,196,6,138.17,135,1,"1","true",1.375,1,1,161,196,135,6,1,87
"1271","1",200,204,6,402.17,411,11,"2","false",0.903,0,1,162,411,204,11,6,87
"1272","2",400,410,6,290.52,298,1,"1","true",1.044,1,1,163,410,298,6,1,87
"1273","1",200,193,6,374.17,360,11,"2","true",11.444,0,1,164,360,193,11,6,87
"1274","1",200,204,6,346.17,354,11,"2","false",7.665,0,1,165,354,204,11,6,87
"1275","0",200,209,6,144.89,152,1,"1","true",1.127,1,1,166,209,152,6,1,87
"1276","0",200,203,6,151.61,154,1,"1","true",1.334,1,1,167,203,154,6,1,87
"1277","1",200,194,6,318.17,309,11,"2","true",0.829,0,1,168,309,194,11,6,87
"1278","1",200,194,6,290.17,281,11,"2","true",0.735,0,1,169,281,194,11,6,87
"1279","3",400,392,6,561.9,551,11,"2","false",1.08,0,1,170,551,392,11,6,87
"1280","3",400,391,6,557.19,545,11,"2","true",1.363,0,1,171,545,391,11,6,87
"1281","0",200,197,6,158.34,156,1,"1","true",0.934,1,1,172,197,156,6,1,87
"1282","3",400,384,6,552.49,530,11,"2","true",1.001,0,1,173,530,384,11,6,87
"1283","1",200,194,6,262.17,255,11,"2","true",16.703,0,1,174,255,194,11,6,87
"1284","0",200,193,6,165.06,160,1,"1","false",1.267,1,1,175,193,160,6,1,87
"1285","3",400,404,6,547.78,554,11,"2","true",0.657,0,1,176,554,404,11,6,87
"1286","3",400,388,6,543.07,527,11,"2","false",1.423,0,1,177,527,388,11,6,87
"1287","3",400,403,6,538.37,542,11,"2","false",1.025,0,1,178,542,403,11,6,87
"1288","0",200,199,6,171.78,171,1,"1","true",1.311,1,1,179,199,171,6,1,87
"1289","1",200,207,6,234.17,242,11,"2","true",1.14,0,1,180,242,207,11,6,87
"1290","1",200,205,6,206.17,211,11,"2","true",1.016,0,1,181,211,205,11,6,87
"1291","3",400,380,6,533.66,507,11,"2","false",1.261,0,1,182,507,380,11,6,87
"1292","1",200,194,6,203.09,197,11,"2","false",1.992,0,1,183,197,194,11,6,87
"1293","0",200,209,6,178.5,187,1,"1","true",1.447,1,1,184,209,187,6,1,87
"1294","3",400,385,6,528.96,509,11,"2","true",1.365,0,1,185,509,385,11,6,87
"1295","3",400,415,6,524.25,544,11,"2","true",1.571,0,1,186,544,415,11,6,87
"1296","3",400,401,6,519.54,521,11,"2","false",1.149,0,1,187,521,401,11,6,87
"1297","1",200,208,6,201.54,210,11,"2","true",1.678,0,1,188,210,208,11,6,87
"1298","1",200,190,6,200.77,191,11,"1","true",0.971,0,0,189,191,190,11,6,87
"1299","0",200,200,6,185.23,185,1,"1","false",0.761,1,1,190,200,185,6,1,87
"1300","3",400,402,6,514.84,517,11,"2","false",21.669,0,1,191,517,402,11,6,87
"1301","0",200,198,6,191.95,190,1,"2","true",0.636,1,0,192,198,190,6,1,87
"1302","0",200,205,6,187.24,192,1,"1","false",12.944,1,1,193,205,192,6,1,87
"1303","1",200,205,6,207.49,212,11,"1","false",0.371,0,0,194,212,205,11,6,87
"1304","3",400,387,6,510.13,494,11,"1","false",0.11,0,0,195,494,387,11,6,87
"1305","1",200,199,6,214.22,213,11,"2","false",0.377,0,1,196,213,199,11,6,87
"1306","1",200,194,6,209.51,203,11,"1","true",0.101,0,0,197,203,194,11,6,87
"1307","3",400,399,6,468.1,467,11,"2","false",11.235,0,1,1,467,399,11,6,30
"1308","7",-100,-101,6,-101.1,-103,11,"1","true",10.538,0,0,2,-103,-101,11,6,30
"1309","1",200,198,6,247.02,245,11,"1","true",3.205,0,0,3,245,198,11,6,30
"1310","6",-100,-96,6,-88.76,-85,1,"1","true",3.393,1,1,4,-96,-85,6,1,30
